USUBJID,AGE,SEX,RACE,ETHNIC,ARM,LBTESTCD,LBTEST,LBORRES,LBORRESU,VISIT,LBDTC
001,45,M,WHITE,NOT HISPANIC OR LATINO,TREATMENT A,GLUC,Glucose,95,mg/dL,SCREENING,2024-01-15
002,32,F,ASIAN,NOT HISPANIC OR LATINO,TREATMENT B,GLUC,Glucose,88,mg/dL,SCREENING,2024-01-16
003,58,M,WHITE,HISPANIC OR LATINO,TREATMENT A,GLUC,Glucose,102,mg/dL,SCREENING,2024-01-17 