USUBJID,AGE,SEX,RACE,ETHNIC,ARM,VSTESTCD,VSTEST,VSORRES,VSORRESU,VISIT,VSDTC
001,45,M,WHITE,NOT HISPANIC OR LATINO,TREATMENT A,SYSBP,Systolic Blood Pressure,120,mmHg,SCREENING,2024-01-15
001,45,M,WHITE,NOT HISPANIC OR LATINO,TREATMENT A,DIABP,Diastolic Blood Pressure,80,mmHg,SCREENING,2024-01-15
002,32,F,ASIAN,NOT HISPANIC OR LATINO,TREATMENT B,SYSBP,Systolic Blood Pressure,118,mmHg,SCREENING,2024-01-16
002,32,F,ASIAN,NOT HISPANIC OR LATINO,TREATMENT B,DIABP,Diastolic Blood Pressure,75,mmHg,SCREENING,2024-01-16
003,58,M,WHITE,HISPANIC OR LATINO,TREATMENT A,SYSBP,Systolic Blood Pressure,135,mmHg,SCREENING,2024-01-17
003,58,M,WHITE,HISPANIC OR LATINO,TREATMENT A,DIABP,Diastolic Blood Pressure,85,mmHg,SCREENING,2024-01-17 