{
  "OID": "CDISC.ADaM.2.1",
  "name": "Study CDISCPILOT01, Data Definitions",
  "description": "Study CDISCPILOT01, Data Definitions",
  "fileOID": "CDISCPILOT01",
  "creationDateTime": "2012-10-18T17:33:04",
  "odmVersion": "1.2",
  "fileType": "Snapshot",
  "defineVersion": "1.0.0",
  "studyOID": "CDISCPILOT01",
  "studyName": "CDISCPILOT01",
  "studyDescription": "CDISCPILOT01 Data Definition",
  "protocolName": "CDISCPILOT01",
  "itemGroups": [
    {
      "OID": "ADSL",
      "purpose": "Analysis",
      "name": "ADSL",
      "label": "Subject-Level Analysis",
      "structure": "one record per subject",
      "isReferenceData": false,
      "items": [
        {
          "OID": "ADSL.STUDYID",
          "mandatory": false,
          "name": "STUDYID",
          "label": "Study Identifier",
          "dataType": "text",
          "length": 12,
          "origin": {
            "type": "Derived"
          }
        },
        {
          "OID": "ADSL.USUBJID",
          "mandatory": false,
          "name": "USUBJID",
          "label": "Unique Subject Identifier",
          "dataType": "text",
          "length": 11,
          "origin": {
            "type": "Derived"
          }
        },
        {
          "OID": "ADSL.SUBJID",
          "mandatory": false,
          "name": "SUBJID",
          "label": "Subject Identifier for the Study",
          "dataType": "text",
          "length": 4,
          "origin": {
            "type": "Derived"
          }
        },
        {
          "OID": "ADSL.SITEID",
          "mandatory": false,
          "name": "SITEID",
          "label": "Study Site Identifier",
          "dataType": "text",
          "length": 3,
          "origin": {
            "type": "Derived"
          }
        },
        {
          "OID": "ADSL.SITEGR1",
          "mandatory": false,
          "name": "SITEGR1",
          "label": "Pooled Site Group 1",
          "dataType": "text",
          "length": 3,
          "origin": {
            "type": "Derived"
          }
        },
        {
          "OID": "ADSL.ARM",
          "mandatory": false,
          "name": "ARM",
          "label": "Description of Planned Arm",
          "dataType": "text",
          "length": 20,
          "codeList": "ARM",
          "origin": {
            "type": "Derived"
          }
        },
        {
          "OID": "ADSL.TRT01P",
          "mandatory": false,
          "name": "TRT01P",
          "label": "Planned Treatment for Period 01",
          "dataType": "text",
          "length": 20,
          "codeList": "ARM",
          "origin": {
            "type": "Derived"
          }
        },
        {
          "OID": "ADSL.TRT01PN",
          "mandatory": false,
          "name": "TRT01PN",
          "label": "Planned Treatment for Period 01 (N)",
          "dataType": "integer",
          "length": 8,
          "codeList": "ARMN",
          "origin": {
            "type": "Derived"
          }
        },
        {
          "OID": "ADSL.TRT01A",
          "mandatory": false,
          "name": "TRT01A",
          "label": "Actual Treatment for Period 01",
          "dataType": "text",
          "length": 20,
          "codeList": "ARM",
          "origin": {
            "type": "Derived"
          }
        },
        {
          "OID": "ADSL.TRT01AN",
          "mandatory": false,
          "name": "TRT01AN",
          "label": "Actual Treatment for Period 01 (N)",
          "dataType": "integer",
          "length": 8,
          "codeList": "ARMN",
          "origin": {
            "type": "Derived"
          }
        },
        {
          "OID": "ADSL.TRTSDT",
          "mandatory": false,
          "name": "TRTSDT",
          "label": "Date of First Exposure to Treatment",
          "displayFormat": "DATE9.",
          "dataType": "integer",
          "length": 8,
          "origin": {
            "type": "Derived"
          }
        },
        {
          "OID": "ADSL.TRTEDT",
          "mandatory": false,
          "name": "TRTEDT",
          "label": "Date of Last Exposure to Treatment",
          "displayFormat": "DATE9.",
          "dataType": "integer",
          "length": 8,
          "origin": {
            "type": "Derived"
          }
        },
        {
          "OID": "ADSL.TRTDUR",
          "mandatory": false,
          "name": "TRTDUR",
          "label": "Duration of Treatment (days)",
          "dataType": "integer",
          "length": 8,
          "origin": {
            "type": "Derived"
          }
        },
        {
          "OID": "ADSL.AVGDD",
          "mandatory": false,
          "name": "AVGDD",
          "label": "Avg Daily Dose (as planned)",
          "significantDigits": 1,
          "dataType": "float",
          "length": 8,
          "origin": {
            "type": "Derived"
          }
        },
        {
          "OID": "ADSL.CUMDOSE",
          "mandatory": false,
          "name": "CUMDOSE",
          "label": "Cumulative Dose (as planned)",
          "significantDigits": 1,
          "dataType": "float",
          "length": 8,
          "origin": {
            "type": "Derived"
          }
        },
        {
          "OID": "ADSL.AGE",
          "mandatory": false,
          "name": "AGE",
          "label": "Age",
          "dataType": "integer",
          "length": 8,
          "origin": {
            "type": "Derived"
          }
        },
        {
          "OID": "ADSL.AGEGR1",
          "mandatory": false,
          "name": "AGEGR1",
          "label": "Pooled Age Group 1",
          "dataType": "text",
          "length": 5,
          "codeList": "AGEGR1",
          "origin": {
            "type": "Derived"
          }
        },
        {
          "OID": "ADSL.AGEGR1N",
          "mandatory": false,
          "name": "AGEGR1N",
          "label": "Pooled Age Group 1 (N)",
          "dataType": "integer",
          "length": 8,
          "codeList": "AGEGR1N",
          "origin": {
            "type": "Derived"
          }
        },
        {
          "OID": "ADSL.AGEU",
          "mandatory": false,
          "name": "AGEU",
          "label": "Age Units",
          "dataType": "text",
          "length": 5,
          "codeList": "AGEU",
          "origin": {
            "type": "Derived"
          }
        },
        {
          "OID": "ADSL.RACE",
          "mandatory": false,
          "name": "RACE",
          "label": "Race",
          "dataType": "text",
          "length": 32,
          "codeList": "RACE",
          "origin": {
            "type": "Derived"
          }
        },
        {
          "OID": "ADSL.RACEN",
          "mandatory": false,
          "name": "RACEN",
          "label": "Race (N)",
          "dataType": "integer",
          "length": 8,
          "codeList": "RACEN",
          "origin": {
            "type": "Derived"
          }
        },
        {
          "OID": "ADSL.SEX",
          "mandatory": false,
          "name": "SEX",
          "label": "Sex",
          "dataType": "text",
          "length": 1,
          "codeList": "SEX",
          "origin": {
            "type": "Derived"
          }
        },
        {
          "OID": "ADSL.ETHNIC",
          "mandatory": false,
          "name": "ETHNIC",
          "label": "Ethnicity",
          "dataType": "text",
          "length": 22,
          "codeList": "ETHNIC",
          "origin": {
            "type": "Derived"
          }
        },
        {
          "OID": "ADSL.SAFFL",
          "mandatory": false,
          "name": "SAFFL",
          "label": "Safety Population Flag",
          "dataType": "text",
          "length": 1,
          "codeList": "YN",
          "origin": {
            "type": "Derived"
          }
        },
        {
          "OID": "ADSL.ITTFL",
          "mandatory": false,
          "name": "ITTFL",
          "label": "Intent-To-Treat Population Flag",
          "dataType": "text",
          "length": 1,
          "codeList": "YN",
          "origin": {
            "type": "Derived"
          }
        },
        {
          "OID": "ADSL.EFFFL",
          "mandatory": false,
          "name": "EFFFL",
          "label": "Efficacy Population Flag",
          "dataType": "text",
          "length": 1,
          "codeList": "YN",
          "origin": {
            "type": "Derived"
          }
        },
        {
          "OID": "ADSL.COMP8FL",
          "mandatory": false,
          "name": "COMP8FL",
          "label": "Completers of Week 8 Population Flag",
          "dataType": "text",
          "length": 1,
          "codeList": "YN",
          "origin": {
            "type": "Derived"
          }
        },
        {
          "OID": "ADSL.COMP16FL",
          "mandatory": false,
          "name": "COMP16FL",
          "label": "Completers of Week 16 Population Flag",
          "dataType": "text",
          "length": 1,
          "codeList": "YN",
          "origin": {
            "type": "Derived"
          }
        },
        {
          "OID": "ADSL.COMP24FL",
          "mandatory": false,
          "name": "COMP24FL",
          "label": "Completers of Week 24 Population Flag",
          "dataType": "text",
          "length": 1,
          "codeList": "YN",
          "origin": {
            "type": "Derived"
          }
        },
        {
          "OID": "ADSL.DISCONFL",
          "mandatory": false,
          "name": "DISCONFL",
          "label": "Did the Subject Discontinue the Study?",
          "dataType": "text",
          "length": 1,
          "codeList": "Y_BLANK",
          "origin": {
            "type": "Derived"
          }
        },
        {
          "OID": "ADSL.DSRAEFL",
          "mandatory": false,
          "name": "DSRAEFL",
          "label": "Discontinued due to AE?",
          "dataType": "text",
          "length": 1,
          "codeList": "Y_BLANK",
          "origin": {
            "type": "Derived"
          }
        },
        {
          "OID": "ADSL.DTHFL",
          "mandatory": false,
          "name": "DTHFL",
          "label": "Subject Died?",
          "dataType": "text",
          "length": 1,
          "codeList": "Y_BLANK",
          "origin": {
            "type": "Derived"
          }
        },
        {
          "OID": "ADSL.BMIBL",
          "mandatory": false,
          "name": "BMIBL",
          "label": "Baseline BMI (kg/m^2)",
          "significantDigits": 1,
          "dataType": "float",
          "length": 8,
          "origin": {
            "type": "Derived"
          }
        },
        {
          "OID": "ADSL.BMIBLGR1",
          "mandatory": false,
          "name": "BMIBLGR1",
          "label": "Pooled Baseline BMI Group 1",
          "dataType": "text",
          "length": 6,
          "codeList": "BMICAT",
          "origin": {
            "type": "Derived"
          }
        },
        {
          "OID": "ADSL.HEIGHTBL",
          "mandatory": false,
          "name": "HEIGHTBL",
          "label": "Baseline Height (cm)",
          "significantDigits": 1,
          "dataType": "float",
          "length": 8,
          "origin": {
            "type": "Derived"
          }
        },
        {
          "OID": "ADSL.WEIGHTBL",
          "mandatory": false,
          "name": "WEIGHTBL",
          "label": "Baseline Weight (kg)",
          "significantDigits": 1,
          "dataType": "float",
          "length": 8,
          "origin": {
            "type": "Derived"
          }
        },
        {
          "OID": "ADSL.EDUCLVL",
          "mandatory": false,
          "name": "EDUCLVL",
          "label": "Years of Education",
          "dataType": "integer",
          "length": 8,
          "origin": {
            "type": "Derived"
          }
        },
        {
          "OID": "ADSL.DISONSDT",
          "mandatory": false,
          "name": "DISONSDT",
          "label": "Date of Onset of Disease",
          "displayFormat": "DATE9.",
          "dataType": "integer",
          "length": 8,
          "origin": {
            "type": "Derived"
          }
        },
        {
          "OID": "ADSL.DURDIS",
          "mandatory": false,
          "name": "DURDIS",
          "label": "Duration of Disease (Months)",
          "significantDigits": 1,
          "dataType": "float",
          "length": 8,
          "origin": {
            "type": "Derived"
          }
        },
        {
          "OID": "ADSL.DURDSGR1",
          "mandatory": false,
          "name": "DURDSGR1",
          "label": "Pooled Disease Duration Group 1",
          "dataType": "text",
          "length": 4,
          "codeList": "DURDISC",
          "origin": {
            "type": "Derived"
          }
        },
        {
          "OID": "ADSL.VISIT1DT",
          "mandatory": false,
          "name": "VISIT1DT",
          "label": "Date of Visit 1",
          "displayFormat": "DATE9.",
          "dataType": "integer",
          "length": 8,
          "origin": {
            "type": "Derived"
          }
        },
        {
          "OID": "ADSL.RFSTDTC",
          "mandatory": false,
          "name": "RFSTDTC",
          "label": "Subject Reference Start Date/Time",
          "dataType": "datetime",
          "length": 20,
          "origin": {
            "type": "Derived"
          }
        },
        {
          "OID": "ADSL.RFENDTC",
          "mandatory": false,
          "name": "RFENDTC",
          "label": "Subject Reference End Date/Time",
          "dataType": "datetime",
          "length": 20,
          "origin": {
            "type": "Derived"
          }
        },
        {
          "OID": "ADSL.VISNUMEN",
          "mandatory": false,
          "name": "VISNUMEN",
          "label": "End of Trt Visit (Vis 12 or Early Term.)",
          "dataType": "integer",
          "length": 8,
          "origin": {
            "type": "Derived"
          }
        },
        {
          "OID": "ADSL.RFENDT",
          "mandatory": false,
          "name": "RFENDT",
          "label": "Date of Discontinuation/Completion",
          "displayFormat": "DATE9.",
          "dataType": "integer",
          "length": 8,
          "origin": {
            "type": "Derived"
          }
        },
        {
          "OID": "ADSL.DCDECOD",
          "mandatory": false,
          "name": "DCDECOD",
          "label": "Standardized Disposition Term",
          "dataType": "text",
          "length": 27,
          "codeList": "DISCCD",
          "origin": {
            "type": "Derived"
          }
        },
        {
          "OID": "ADSL.DCREASCD",
          "mandatory": false,
          "name": "DCREASCD",
          "label": "Reason for Discontinuation",
          "dataType": "text",
          "length": 18,
          "codeList": "DISCREAS",
          "origin": {
            "type": "Derived"
          }
        },
        {
          "OID": "ADSL.MMSETOT",
          "mandatory": false,
          "name": "MMSETOT",
          "label": "MMSE Total",
          "dataType": "integer",
          "length": 8,
          "origin": {
            "type": "Derived"
          }
        }
      ]
    },
    {
      "OID": "ADAE",
      "comments": [
        "see program ..\\programs\\adae.sas"
      ],
      "purpose": "Analysis",
      "name": "ADAE",
      "label": "Adverse Events Analysis Dataset",
      "structure": "one record per subject per adverse event",
      "isReferenceData": false,
      "items": [
        {
          "OID": "ADAE.STUDYID",
          "mandatory": false,
          "name": "STUDYID",
          "label": "Study Identifier",
          "dataType": "text",
          "length": 12,
          "origin": {
            "type": "Derived"
          }
        },
        {
          "OID": "ADAE.SITEID",
          "mandatory": false,
          "name": "SITEID",
          "label": "Study Site Identifier",
          "dataType": "text",
          "length": 3,
          "origin": {
            "type": "Derived"
          }
        },
        {
          "OID": "ADAE.USUBJID",
          "mandatory": false,
          "name": "USUBJID",
          "label": "Unique Subject Identifier",
          "dataType": "text",
          "length": 11,
          "origin": {
            "type": "Derived"
          }
        },
        {
          "OID": "ADAE.TRTA",
          "mandatory": false,
          "name": "TRTA",
          "label": "Actual Treatment",
          "dataType": "text",
          "length": 20,
          "codeList": "ARM",
          "origin": {
            "type": "Derived"
          }
        },
        {
          "OID": "ADAE.TRTAN",
          "mandatory": false,
          "name": "TRTAN",
          "label": "Actual Treatment (N)",
          "dataType": "integer",
          "length": 8,
          "codeList": "ARMN",
          "origin": {
            "type": "Derived"
          }
        },
        {
          "OID": "ADAE.AGE",
          "mandatory": false,
          "name": "AGE",
          "label": "Age",
          "dataType": "integer",
          "length": 8,
          "origin": {
            "type": "Derived"
          }
        },
        {
          "OID": "ADAE.AGEGR1",
          "mandatory": false,
          "name": "AGEGR1",
          "label": "Pooled Age Group 1",
          "dataType": "text",
          "length": 5,
          "codeList": "AGEGR1",
          "origin": {
            "type": "Derived"
          }
        },
        {
          "OID": "ADAE.AGEGR1N",
          "mandatory": false,
          "name": "AGEGR1N",
          "label": "Pooled Age Group 1 (N)",
          "dataType": "integer",
          "length": 8,
          "codeList": "AGEGR1N",
          "origin": {
            "type": "Derived"
          }
        },
        {
          "OID": "ADAE.RACE",
          "mandatory": false,
          "name": "RACE",
          "label": "Race",
          "dataType": "text",
          "length": 32,
          "codeList": "RACE",
          "origin": {
            "type": "Derived"
          }
        },
        {
          "OID": "ADAE.RACEN",
          "mandatory": false,
          "name": "RACEN",
          "label": "Race (N)",
          "dataType": "integer",
          "length": 8,
          "codeList": "RACEN",
          "origin": {
            "type": "Derived"
          }
        },
        {
          "OID": "ADAE.SEX",
          "mandatory": false,
          "name": "SEX",
          "label": "Sex",
          "dataType": "text",
          "length": 1,
          "codeList": "SEX",
          "origin": {
            "type": "Derived"
          }
        },
        {
          "OID": "ADAE.SAFFL",
          "mandatory": false,
          "name": "SAFFL",
          "label": "Safety Population Flag",
          "dataType": "text",
          "length": 1,
          "codeList": "YN",
          "origin": {
            "type": "Derived"
          }
        },
        {
          "OID": "ADAE.TRTSDT",
          "mandatory": false,
          "name": "TRTSDT",
          "label": "Date of First Exposure to Treatment",
          "displayFormat": "DATE9.",
          "dataType": "integer",
          "length": 8,
          "origin": {
            "type": "Derived"
          }
        },
        {
          "OID": "ADAE.TRTEDT",
          "mandatory": false,
          "name": "TRTEDT",
          "label": "Date of Last Exposure to Treatment",
          "displayFormat": "DATE9.",
          "dataType": "integer",
          "length": 8,
          "origin": {
            "type": "Derived"
          }
        },
        {
          "OID": "ADAE.ASTDT",
          "mandatory": false,
          "name": "ASTDT",
          "label": "Analysis Start Date",
          "displayFormat": "DATE9.",
          "dataType": "integer",
          "length": 8,
          "origin": {
            "type": "Derived"
          }
        },
        {
          "OID": "ADAE.ASTDTF",
          "mandatory": false,
          "name": "ASTDTF",
          "label": "Analysis Start Date Imputation Flag",
          "dataType": "text",
          "length": 1,
          "codeList": "DMY",
          "origin": {
            "type": "Derived"
          }
        },
        {
          "OID": "ADAE.ASTDY",
          "mandatory": false,
          "name": "ASTDY",
          "label": "Analysis Start Relative Day",
          "dataType": "integer",
          "length": 8,
          "origin": {
            "type": "Derived"
          }
        },
        {
          "OID": "ADAE.AENDT",
          "mandatory": false,
          "name": "AENDT",
          "label": "Analysis End Date",
          "displayFormat": "DATE9.",
          "dataType": "integer",
          "length": 8,
          "origin": {
            "type": "Derived"
          }
        },
        {
          "OID": "ADAE.AENDY",
          "mandatory": false,
          "name": "AENDY",
          "label": "Analysis End Relative Day",
          "dataType": "integer",
          "length": 8,
          "origin": {
            "type": "Derived"
          }
        },
        {
          "OID": "ADAE.ADURN",
          "mandatory": false,
          "name": "ADURN",
          "label": "AE Duration (N)",
          "dataType": "integer",
          "length": 8,
          "origin": {
            "type": "Derived"
          }
        },
        {
          "OID": "ADAE.ADURU",
          "mandatory": false,
          "name": "ADURU",
          "label": "AE Duration Units",
          "dataType": "text",
          "length": 3,
          "origin": {
            "type": "Derived"
          }
        },
        {
          "OID": "ADAE.AETERM",
          "mandatory": false,
          "name": "AETERM",
          "label": "Reported Term for the Adverse Event",
          "dataType": "text",
          "length": 46,
          "origin": {
            "type": "Derived"
          }
        },
        {
          "OID": "ADAE.AELLT",
          "mandatory": false,
          "name": "AELLT",
          "label": "Lowest Level Term",
          "dataType": "text",
          "length": 46,
          "codeList": "AEDICT",
          "origin": {
            "type": "Derived"
          }
        },
        {
          "OID": "ADAE.AELLTCD",
          "mandatory": false,
          "name": "AELLTCD",
          "label": "Lowest Level Term Code",
          "dataType": "integer",
          "length": 8,
          "origin": {
            "type": "Derived"
          }
        },
        {
          "OID": "ADAE.AEDECOD",
          "mandatory": false,
          "name": "AEDECOD",
          "label": "Dictionary-Derived Term",
          "dataType": "text",
          "length": 46,
          "codeList": "AEDICT",
          "origin": {
            "type": "Derived"
          }
        },
        {
          "OID": "ADAE.AEPTCD",
          "mandatory": false,
          "name": "AEPTCD",
          "label": "Preferred Term Code",
          "dataType": "integer",
          "length": 8,
          "origin": {
            "type": "Derived"
          }
        },
        {
          "OID": "ADAE.AEHLT",
          "mandatory": false,
          "name": "AEHLT",
          "label": "High Level Term",
          "dataType": "text",
          "length": 8,
          "codeList": "AEDICT",
          "origin": {
            "type": "Derived"
          }
        },
        {
          "OID": "ADAE.AEHLTCD",
          "mandatory": false,
          "name": "AEHLTCD",
          "label": "High Level Term Code",
          "dataType": "integer",
          "length": 8,
          "origin": {
            "type": "Derived"
          }
        },
        {
          "OID": "ADAE.AEHLGT",
          "mandatory": false,
          "name": "AEHLGT",
          "label": "High Level Group Term",
          "dataType": "text",
          "length": 9,
          "codeList": "AEDICT",
          "origin": {
            "type": "Derived"
          }
        },
        {
          "OID": "ADAE.AEHLGTCD",
          "mandatory": false,
          "name": "AEHLGTCD",
          "label": "High Level Group Term Code",
          "dataType": "integer",
          "length": 8,
          "origin": {
            "type": "Derived"
          }
        },
        {
          "OID": "ADAE.AEBODSYS",
          "mandatory": false,
          "name": "AEBODSYS",
          "label": "Body System or Organ Class",
          "dataType": "text",
          "length": 67,
          "codeList": "AEDICT",
          "origin": {
            "type": "Derived"
          }
        },
        {
          "OID": "ADAE.AESOC",
          "mandatory": false,
          "name": "AESOC",
          "label": "Primary System Organ Class",
          "dataType": "text",
          "length": 67,
          "codeList": "AEDICT",
          "origin": {
            "type": "Derived"
          }
        },
        {
          "OID": "ADAE.AESOCCD",
          "mandatory": false,
          "name": "AESOCCD",
          "label": "Primary System Organ Class Code",
          "dataType": "integer",
          "length": 8,
          "origin": {
            "type": "Derived"
          }
        },
        {
          "OID": "ADAE.AESEV",
          "mandatory": false,
          "name": "AESEV",
          "label": "Severity/Intensity",
          "dataType": "text",
          "length": 8,
          "codeList": "SEV",
          "origin": {
            "type": "Derived"
          }
        },
        {
          "OID": "ADAE.AESER",
          "mandatory": false,
          "name": "AESER",
          "label": "Serious Event",
          "dataType": "text",
          "length": 1,
          "codeList": "YN",
          "origin": {
            "type": "Derived"
          }
        },
        {
          "OID": "ADAE.AESCAN",
          "mandatory": false,
          "name": "AESCAN",
          "label": "Involves Cancer",
          "dataType": "text",
          "length": 1,
          "codeList": "YN",
          "origin": {
            "type": "Derived"
          }
        },
        {
          "OID": "ADAE.AESCONG",
          "mandatory": false,
          "name": "AESCONG",
          "label": "Congenital Anomaly or Birth Defect",
          "dataType": "text",
          "length": 1,
          "codeList": "YN",
          "origin": {
            "type": "Derived"
          }
        },
        {
          "OID": "ADAE.AESDISAB",
          "mandatory": false,
          "name": "AESDISAB",
          "label": "Persist or Signif Disability/Incapacity",
          "dataType": "text",
          "length": 1,
          "codeList": "YN",
          "origin": {
            "type": "Derived"
          }
        },
        {
          "OID": "ADAE.AESDTH",
          "mandatory": false,
          "name": "AESDTH",
          "label": "Results in Death",
          "dataType": "text",
          "length": 1,
          "codeList": "YN",
          "origin": {
            "type": "Derived"
          }
        },
        {
          "OID": "ADAE.AESHOSP",
          "mandatory": false,
          "name": "AESHOSP",
          "label": "Requires or Prolongs Hospitalization",
          "dataType": "text",
          "length": 1,
          "codeList": "YN",
          "origin": {
            "type": "Derived"
          }
        },
        {
          "OID": "ADAE.AESLIFE",
          "mandatory": false,
          "name": "AESLIFE",
          "label": "Is Life Threatening",
          "dataType": "text",
          "length": 1,
          "codeList": "YN",
          "origin": {
            "type": "Derived"
          }
        },
        {
          "OID": "ADAE.AESOD",
          "mandatory": false,
          "name": "AESOD",
          "label": "Occurred with Overdose",
          "dataType": "text",
          "length": 1,
          "codeList": "YN",
          "origin": {
            "type": "Derived"
          }
        },
        {
          "OID": "ADAE.AEREL",
          "mandatory": false,
          "name": "AEREL",
          "label": "Causality",
          "dataType": "text",
          "length": 8,
          "codeList": "AECAUS",
          "origin": {
            "type": "Derived"
          }
        },
        {
          "OID": "ADAE.AEACN",
          "mandatory": false,
          "name": "AEACN",
          "label": "Action Taken with Study Treatment",
          "dataType": "text",
          "length": 1,
          "origin": {
            "type": "Derived"
          }
        },
        {
          "OID": "ADAE.AEOUT",
          "mandatory": false,
          "name": "AEOUT",
          "label": "Outcome of Adverse Event",
          "dataType": "text",
          "length": 26,
          "codeList": "OUT",
          "origin": {
            "type": "Derived"
          }
        },
        {
          "OID": "ADAE.AESEQ",
          "mandatory": false,
          "name": "AESEQ",
          "label": "Sequence Number",
          "dataType": "integer",
          "length": 8,
          "origin": {
            "type": "Derived"
          }
        },
        {
          "OID": "ADAE.TRTEMFL",
          "mandatory": false,
          "name": "TRTEMFL",
          "label": "Treatment Emergent Analysis Flag",
          "dataType": "text",
          "length": 1,
          "codeList": "YN",
          "origin": {
            "type": "Derived"
          }
        },
        {
          "OID": "ADAE.AOCCFL",
          "mandatory": false,
          "name": "AOCCFL",
          "label": "1st Occurrence of Any AE Flag",
          "dataType": "text",
          "length": 1,
          "codeList": "Y_BLANK",
          "origin": {
            "type": "Derived"
          }
        },
        {
          "OID": "ADAE.AOCCSFL",
          "mandatory": false,
          "name": "AOCCSFL",
          "label": "1st Occurrence of SOC Flag",
          "dataType": "text",
          "length": 1,
          "codeList": "Y_BLANK",
          "origin": {
            "type": "Derived"
          }
        },
        {
          "OID": "ADAE.AOCCPFL",
          "mandatory": false,
          "name": "AOCCPFL",
          "label": "1st Occurrence of Preferred Term Flag",
          "dataType": "text",
          "length": 1,
          "codeList": "Y_BLANK",
          "origin": {
            "type": "Derived"
          }
        },
        {
          "OID": "ADAE.AOCC02FL",
          "mandatory": false,
          "name": "AOCC02FL",
          "label": "1st Occurrence 02 Flag for Serious",
          "dataType": "text",
          "length": 1,
          "codeList": "Y_BLANK",
          "origin": {
            "type": "Derived"
          }
        },
        {
          "OID": "ADAE.AOCC03FL",
          "mandatory": false,
          "name": "AOCC03FL",
          "label": "1st Occurrence 03 Flag for Serious SOC",
          "dataType": "text",
          "length": 1,
          "codeList": "Y_BLANK",
          "origin": {
            "type": "Derived"
          }
        },
        {
          "OID": "ADAE.AOCC04FL",
          "mandatory": false,
          "name": "AOCC04FL",
          "label": "1st Occurrence 04 Flag for Serious PT",
          "dataType": "text",
          "length": 1,
          "codeList": "Y_BLANK",
          "origin": {
            "type": "Derived"
          }
        },
        {
          "OID": "ADAE.CQ01NAM",
          "mandatory": false,
          "name": "CQ01NAM",
          "label": "Customized Query 01 Name",
          "dataType": "text",
          "length": 19,
          "origin": {
            "type": "Derived"
          }
        },
        {
          "OID": "ADAE.AOCC01FL",
          "mandatory": false,
          "name": "AOCC01FL",
          "label": "1st Occurrence 01 Flag for CQ01",
          "dataType": "text",
          "length": 1,
          "codeList": "Y_BLANK",
          "origin": {
            "type": "Derived"
          }
        }
      ]
    },
    {
      "OID": "ADLBC",
      "purpose": "Analysis",
      "name": "ADLBC",
      "label": "Analysis Dataset Lab Blood Chemistry",
      "structure": "one record per subject per parameter per analysis visit",
      "isReferenceData": false,
      "items": [
        {
          "OID": "ADLBC.STUDYID",
          "mandatory": false,
          "name": "STUDYID",
          "label": "Study Identifier",
          "dataType": "text",
          "length": 12,
          "origin": {
            "type": "Derived"
          }
        },
        {
          "OID": "ADLBC.SUBJID",
          "mandatory": false,
          "name": "SUBJID",
          "label": "Subject Identifier for the Study",
          "dataType": "text",
          "length": 4,
          "origin": {
            "type": "Derived"
          }
        },
        {
          "OID": "ADLBC.USUBJID",
          "mandatory": false,
          "name": "USUBJID",
          "label": "Unique Subject Identifier",
          "dataType": "text",
          "length": 11,
          "origin": {
            "type": "Derived"
          }
        },
        {
          "OID": "ADLBC.TRTP",
          "mandatory": false,
          "name": "TRTP",
          "label": "Planned Treatment",
          "dataType": "text",
          "length": 20,
          "codeList": "ARM",
          "origin": {
            "type": "Derived"
          }
        },
        {
          "OID": "ADLBC.TRTPN",
          "mandatory": false,
          "name": "TRTPN",
          "label": "Planned Treatment (N)",
          "dataType": "integer",
          "length": 8,
          "codeList": "ARMN",
          "origin": {
            "type": "Derived"
          }
        },
        {
          "OID": "ADLBC.TRTA",
          "mandatory": false,
          "name": "TRTA",
          "label": "Actual Treatment",
          "dataType": "text",
          "length": 20,
          "codeList": "ARM",
          "origin": {
            "type": "Derived"
          }
        },
        {
          "OID": "ADLBC.TRTAN",
          "mandatory": false,
          "name": "TRTAN",
          "label": "Actual Treatment (N)",
          "dataType": "integer",
          "length": 8,
          "codeList": "ARMN",
          "origin": {
            "type": "Derived"
          }
        },
        {
          "OID": "ADLBC.TRTSDT",
          "mandatory": false,
          "name": "TRTSDT",
          "label": "Date of First Exposure to Treatment",
          "displayFormat": "DATE9.",
          "dataType": "integer",
          "length": 8,
          "origin": {
            "type": "Derived"
          }
        },
        {
          "OID": "ADLBC.TRTEDT",
          "mandatory": false,
          "name": "TRTEDT",
          "label": "Date of Last Exposure to Treatment",
          "displayFormat": "DATE9.",
          "dataType": "integer",
          "length": 8,
          "origin": {
            "type": "Derived"
          }
        },
        {
          "OID": "ADLBC.AGE",
          "mandatory": false,
          "name": "AGE",
          "label": "Age",
          "dataType": "integer",
          "length": 8,
          "origin": {
            "type": "Derived"
          }
        },
        {
          "OID": "ADLBC.AGEGR1",
          "mandatory": false,
          "name": "AGEGR1",
          "label": "Pooled Age Group 1",
          "dataType": "text",
          "length": 5,
          "codeList": "AGEGR1",
          "origin": {
            "type": "Derived"
          }
        },
        {
          "OID": "ADLBC.AGEGR1N",
          "mandatory": false,
          "name": "AGEGR1N",
          "label": "Pooled Age Group 1 (N)",
          "dataType": "integer",
          "length": 8,
          "codeList": "AGEGR1N",
          "origin": {
            "type": "Derived"
          }
        },
        {
          "OID": "ADLBC.RACE",
          "mandatory": false,
          "name": "RACE",
          "label": "Race",
          "dataType": "text",
          "length": 32,
          "codeList": "RACE",
          "origin": {
            "type": "Derived"
          }
        },
        {
          "OID": "ADLBC.RACEN",
          "mandatory": false,
          "name": "RACEN",
          "label": "Race (N)",
          "dataType": "integer",
          "length": 8,
          "codeList": "RACEN",
          "origin": {
            "type": "Derived"
          }
        },
        {
          "OID": "ADLBC.SEX",
          "mandatory": false,
          "name": "SEX",
          "label": "Sex",
          "dataType": "text",
          "length": 1,
          "codeList": "SEX",
          "origin": {
            "type": "Derived"
          }
        },
        {
          "OID": "ADLBC.COMP24FL",
          "mandatory": false,
          "name": "COMP24FL",
          "label": "Completers of Week 24 Population Flag",
          "dataType": "text",
          "length": 1,
          "codeList": "YN",
          "origin": {
            "type": "Derived"
          }
        },
        {
          "OID": "ADLBC.DSRAEFL",
          "mandatory": false,
          "name": "DSRAEFL",
          "label": "Discontinued due to AE?",
          "dataType": "text",
          "length": 1,
          "codeList": "YN",
          "origin": {
            "type": "Derived"
          }
        },
        {
          "OID": "ADLBC.SAFFL",
          "mandatory": false,
          "name": "SAFFL",
          "label": "Safety Population Flag",
          "dataType": "text",
          "length": 1,
          "codeList": "YN",
          "origin": {
            "type": "Derived"
          }
        },
        {
          "OID": "ADLBC.AVISIT",
          "mandatory": false,
          "name": "AVISIT",
          "label": "Analysis Visit",
          "dataType": "text",
          "length": 16,
          "codeList": "AVISIT",
          "origin": {
            "type": "Derived"
          }
        },
        {
          "OID": "ADLBC.AVISITN",
          "mandatory": false,
          "name": "AVISITN",
          "label": "Analysis Visit (N)",
          "dataType": "integer",
          "length": 8,
          "codeList": "AVISITN",
          "origin": {
            "type": "Derived"
          }
        },
        {
          "OID": "ADLBC.ADY",
          "mandatory": false,
          "name": "ADY",
          "label": "Analysis Relative Day",
          "dataType": "integer",
          "length": 8,
          "origin": {
            "type": "Derived"
          }
        },
        {
          "OID": "ADLBC.ADT",
          "mandatory": false,
          "name": "ADT",
          "label": "Analysis Date",
          "displayFormat": "DATE9.",
          "dataType": "integer",
          "length": 8,
          "origin": {
            "type": "Derived"
          }
        },
        {
          "OID": "ADLBC.VISIT",
          "mandatory": false,
          "name": "VISIT",
          "label": "Visit Name",
          "dataType": "text",
          "length": 19,
          "codeList": "VISIT",
          "origin": {
            "type": "Derived"
          }
        },
        {
          "OID": "ADLBC.VISITNUM",
          "mandatory": false,
          "name": "VISITNUM",
          "label": "Visit Number",
          "significantDigits": 1,
          "dataType": "float",
          "length": 8,
          "codeList": "VISITNUM",
          "origin": {
            "type": "Derived"
          }
        },
        {
          "OID": "ADLBC.PARAM",
          "mandatory": false,
          "name": "PARAM",
          "label": "Parameter",
          "dataType": "text",
          "length": 100,
          "codeList": "PARAM_ADLBC",
          "origin": {
            "type": "Derived"
          }
        },
        {
          "OID": "ADLBC.PARAMCD",
          "mandatory": false,
          "name": "PARAMCD",
          "label": "Parameter Code",
          "dataType": "text",
          "length": 8,
          "codeList": "PARAMCD_ADLBC",
          "origin": {
            "type": "Derived"
          }
        },
        {
          "OID": "ADLBC.PARAMN",
          "mandatory": false,
          "name": "PARAMN",
          "label": "Parameter (N)",
          "dataType": "integer",
          "length": 8,
          "codeList": "PARAMN_ADLBC",
          "origin": {
            "type": "Derived"
          }
        },
        {
          "OID": "ADLBC.PARCAT1",
          "mandatory": false,
          "name": "PARCAT1",
          "label": "Parameter Category 1",
          "dataType": "text",
          "length": 5,
          "codeList": "ADLBCAT",
          "origin": {
            "type": "Derived"
          }
        },
        {
          "OID": "ADLBC.AVAL",
          "mandatory": false,
          "name": "AVAL",
          "label": "Analysis Value",
          "significantDigits": 5,
          "dataType": "float",
          "length": 8,
          "origin": {
            "type": "Derived"
          }
        },
        {
          "OID": "ADLBC.BASE",
          "mandatory": false,
          "name": "BASE",
          "label": "Baseline Value",
          "significantDigits": 5,
          "dataType": "float",
          "length": 8,
          "origin": {
            "type": "Derived"
          }
        },
        {
          "OID": "ADLBC.CHG",
          "mandatory": false,
          "name": "CHG",
          "label": "Change from Baseline",
          "significantDigits": 5,
          "dataType": "float",
          "length": 8,
          "origin": {
            "type": "Derived"
          }
        },
        {
          "OID": "ADLBC.A1LO",
          "mandatory": false,
          "name": "A1LO",
          "label": "Analysis Range 1 Lower Limit",
          "significantDigits": 5,
          "dataType": "float",
          "length": 8,
          "origin": {
            "type": "Derived"
          }
        },
        {
          "OID": "ADLBC.A1HI",
          "mandatory": false,
          "name": "A1HI",
          "label": "Analysis Range 1 Upper Limit",
          "significantDigits": 5,
          "dataType": "float",
          "length": 8,
          "origin": {
            "type": "Derived"
          }
        },
        {
          "OID": "ADLBC.R2A1LO",
          "mandatory": false,
          "name": "R2A1LO",
          "label": "Ratio to Analysis Range 1 Lower Limit",
          "significantDigits": 1,
          "dataType": "float",
          "length": 8,
          "origin": {
            "type": "Derived"
          }
        },
        {
          "OID": "ADLBC.R2A1HI",
          "mandatory": false,
          "name": "R2A1HI",
          "label": "Ratio to Analysis Range 1 Upper Limit",
          "significantDigits": 1,
          "dataType": "float",
          "length": 8,
          "origin": {
            "type": "Derived"
          }
        },
        {
          "OID": "ADLBC.BR2A1LO",
          "mandatory": false,
          "name": "BR2A1LO",
          "label": "Base Ratio to Analysis Range 1 Lower Lim",
          "significantDigits": 1,
          "dataType": "float",
          "length": 8,
          "origin": {
            "type": "Derived"
          }
        },
        {
          "OID": "ADLBC.BR2A1HI",
          "mandatory": false,
          "name": "BR2A1HI",
          "label": "Base Ratio to Analysis Range 1 Upper Lim",
          "significantDigits": 1,
          "dataType": "float",
          "length": 8,
          "origin": {
            "type": "Derived"
          }
        },
        {
          "OID": "ADLBC.ANL01FL",
          "mandatory": false,
          "name": "ANL01FL",
          "label": "Analysis Record Flag 1",
          "dataType": "text",
          "length": 1,
          "codeList": "Y_BLANK",
          "origin": {
            "type": "Derived"
          }
        },
        {
          "OID": "ADLBC.ALBTRVAL",
          "mandatory": false,
          "name": "ALBTRVAL",
          "label": "Amount Threshold Range",
          "significantDigits": 3,
          "dataType": "float",
          "length": 8,
          "origin": {
            "type": "Derived"
          }
        },
        {
          "OID": "ADLBC.ANRIND",
          "mandatory": false,
          "name": "ANRIND",
          "label": "Analysis Reference Range Indicator",
          "dataType": "text",
          "length": 1,
          "codeList": "LNH",
          "origin": {
            "type": "Derived"
          }
        },
        {
          "OID": "ADLBC.BNRIND",
          "mandatory": false,
          "name": "BNRIND",
          "label": "Baseline Reference Range Indicator",
          "dataType": "text",
          "length": 1,
          "codeList": "LNH",
          "origin": {
            "type": "Derived"
          }
        },
        {
          "OID": "ADLBC.ABLFL",
          "mandatory": false,
          "name": "ABLFL",
          "label": "Baseline Record Flag",
          "dataType": "text",
          "length": 1,
          "codeList": "Y_BLANK",
          "origin": {
            "type": "Derived"
          }
        },
        {
          "OID": "ADLBC.AENTMTFL",
          "mandatory": false,
          "name": "AENTMTFL",
          "label": "Last value in treatment visit",
          "dataType": "text",
          "length": 1,
          "codeList": "Y_BLANK",
          "origin": {
            "type": "Derived"
          }
        },
        {
          "OID": "ADLBC.LBSEQ",
          "mandatory": false,
          "name": "LBSEQ",
          "label": "Sequence Number",
          "dataType": "integer",
          "length": 8,
          "origin": {
            "type": "Derived"
          }
        },
        {
          "OID": "ADLBC.LBNRIND",
          "mandatory": false,
          "name": "LBNRIND",
          "label": "Reference Range Indicator",
          "dataType": "text",
          "length": 8,
          "codeList": "LBNRIND",
          "origin": {
            "type": "Derived"
          }
        },
        {
          "OID": "ADLBC.LBSTRESN",
          "mandatory": false,
          "name": "LBSTRESN",
          "label": "Numeric Result/Finding in Standard Units",
          "significantDigits": 5,
          "dataType": "float",
          "length": 8,
          "origin": {
            "type": "Derived"
          }
        }
      ],
      "children": [
        {
          "OID": "ValueList.ADLBC.A1HI",
          "name": "ADLBC_A1HI",
          "type": "ValueList",
          "items": [
            {
              "OID": "ADLBC.A1HI.ALB",
              "mandatory": false,
              "name": "ALB",
              "label": "Albumin (g/L)",
              "dataType": "integer",
              "length": 8,
              "origin": {
                "type": "Derived"
              }
            },
            {
              "OID": "ADLBC.A1HI.ALP",
              "mandatory": false,
              "name": "ALP",
              "label": "Alkaline Phosphatase (U/L)",
              "dataType": "integer",
              "length": 8,
              "origin": {
                "type": "Derived"
              }
            },
            {
              "OID": "ADLBC.A1HI.ALT",
              "mandatory": false,
              "name": "ALT",
              "label": "Alanine Aminotransferase (U/L)",
              "dataType": "integer",
              "length": 8,
              "origin": {
                "type": "Derived"
              }
            },
            {
              "OID": "ADLBC.A1HI.AST",
              "mandatory": false,
              "name": "AST",
              "label": "Aspartate Aminotransferase (U/L)",
              "dataType": "integer",
              "length": 8,
              "origin": {
                "type": "Derived"
              }
            },
            {
              "OID": "ADLBC.A1HI.BILI",
              "mandatory": false,
              "name": "BILI",
              "label": "Bilirubin (umol/L)",
              "displayFormat": "6.2",
              "significantDigits": 2,
              "dataType": "float",
              "length": 8,
              "origin": {
                "type": "Derived"
              }
            },
            {
              "OID": "ADLBC.A1HI.BUN",
              "mandatory": false,
              "name": "BUN",
              "label": "Blood Urea Nitrogen (mmol/L)",
              "displayFormat": "7.3",
              "significantDigits": 3,
              "dataType": "float",
              "length": 8,
              "origin": {
                "type": "Derived"
              }
            },
            {
              "OID": "ADLBC.A1HI.CA",
              "mandatory": false,
              "name": "CA",
              "label": "Calcium (mmol/L)",
              "displayFormat": "8.5",
              "significantDigits": 5,
              "dataType": "float",
              "length": 8,
              "origin": {
                "type": "Derived"
              }
            },
            {
              "OID": "ADLBC.A1HI.CHOL",
              "mandatory": false,
              "name": "CHOL",
              "label": "Cholesterol (mmol/L)",
              "displayFormat": "8.5",
              "significantDigits": 5,
              "dataType": "float",
              "length": 8,
              "origin": {
                "type": "Derived"
              }
            },
            {
              "OID": "ADLBC.A1HI.CK",
              "mandatory": false,
              "name": "CK",
              "label": "Creatine Kinase (U/L)",
              "dataType": "integer",
              "length": 8,
              "origin": {
                "type": "Derived"
              }
            },
            {
              "OID": "ADLBC.A1HI.CL",
              "mandatory": false,
              "name": "CL",
              "label": "Chloride (mmol/L)",
              "dataType": "integer",
              "length": 8,
              "origin": {
                "type": "Derived"
              }
            },
            {
              "OID": "ADLBC.A1HI.CREAT",
              "mandatory": false,
              "name": "CREAT",
              "label": "Creatinine (umol/L)",
              "displayFormat": "6.2",
              "significantDigits": 2,
              "dataType": "float",
              "length": 8,
              "origin": {
                "type": "Derived"
              }
            },
            {
              "OID": "ADLBC.A1HI.GGT",
              "mandatory": false,
              "name": "GGT",
              "label": "Gamma Glutamyl Transferase (U/L)",
              "dataType": "integer",
              "length": 8,
              "origin": {
                "type": "Derived"
              }
            },
            {
              "OID": "ADLBC.A1HI.GLUC",
              "mandatory": false,
              "name": "GLUC",
              "label": "Glucose (mmol/L)",
              "displayFormat": "8.5",
              "significantDigits": 5,
              "dataType": "float",
              "length": 8,
              "origin": {
                "type": "Derived"
              }
            },
            {
              "OID": "ADLBC.A1HI.K",
              "mandatory": false,
              "name": "K",
              "label": "Potassium (mmol/L)",
              "displayFormat": "4.1",
              "significantDigits": 1,
              "dataType": "float",
              "length": 8,
              "origin": {
                "type": "Derived"
              }
            },
            {
              "OID": "ADLBC.A1HI.PHOS",
              "mandatory": false,
              "name": "PHOS",
              "label": "Phosphate (mmol/L)",
              "displayFormat": "7.5",
              "significantDigits": 5,
              "dataType": "float",
              "length": 8,
              "origin": {
                "type": "Derived"
              }
            },
            {
              "OID": "ADLBC.A1HI.PROT",
              "mandatory": false,
              "name": "PROT",
              "label": "Protein (g/L)",
              "dataType": "integer",
              "length": 8,
              "origin": {
                "type": "Derived"
              }
            },
            {
              "OID": "ADLBC.A1HI.SODIUM",
              "mandatory": false,
              "name": "SODIUM",
              "label": "Sodium (mmol/L)",
              "dataType": "integer",
              "length": 8,
              "origin": {
                "type": "Derived"
              }
            },
            {
              "OID": "ADLBC.A1HI.URATE",
              "mandatory": false,
              "name": "URATE",
              "label": "Urate (umol/L)",
              "displayFormat": "7.3",
              "significantDigits": 3,
              "dataType": "float",
              "length": 8,
              "origin": {
                "type": "Derived"
              }
            },
            {
              "OID": "ADLBC.A1HI._ALB",
              "mandatory": false,
              "name": "_ALB",
              "label": "Albumin (g/L) change from previous visit, relative to normal range",
              "dataType": "integer",
              "length": 8,
              "origin": {
                "type": "Derived"
              }
            },
            {
              "OID": "ADLBC.A1HI._ALP",
              "mandatory": false,
              "name": "_ALP",
              "label": "Alkaline Phosphatase (U/L) change from previous visit, relative to normal range",
              "dataType": "integer",
              "length": 8,
              "origin": {
                "type": "Derived"
              }
            },
            {
              "OID": "ADLBC.A1HI._ALT",
              "mandatory": false,
              "name": "_ALT",
              "label": "Alanine Aminotransferase (U/L) change from previous visit, relative to normal range",
              "dataType": "integer",
              "length": 8,
              "origin": {
                "type": "Derived"
              }
            },
            {
              "OID": "ADLBC.A1HI._AST",
              "mandatory": false,
              "name": "_AST",
              "label": "Aspartate Aminotransferase (U/L) change from previous visit, relative to normal range",
              "dataType": "integer",
              "length": 8,
              "origin": {
                "type": "Derived"
              }
            },
            {
              "OID": "ADLBC.A1HI._BILI",
              "mandatory": false,
              "name": "_BILI",
              "label": "Bilirubin (umol/L) change from previous visit, relative to normal range",
              "dataType": "integer",
              "length": 8,
              "origin": {
                "type": "Derived"
              }
            },
            {
              "OID": "ADLBC.A1HI._BUN",
              "mandatory": false,
              "name": "_BUN",
              "label": "Blood Urea Nitrogen (mmol/L) change from previous visit, relative to normal range",
              "dataType": "integer",
              "length": 8,
              "origin": {
                "type": "Derived"
              }
            },
            {
              "OID": "ADLBC.A1HI._CA",
              "mandatory": false,
              "name": "_CA",
              "label": "Calcium (mmol/L) change from previous visit, relative to normal range",
              "dataType": "integer",
              "length": 8,
              "origin": {
                "type": "Derived"
              }
            },
            {
              "OID": "ADLBC.A1HI._CHOL",
              "mandatory": false,
              "name": "_CHOL",
              "label": "Cholesterol (mmol/L) change from previous visit, relative to normal range",
              "dataType": "integer",
              "length": 8,
              "origin": {
                "type": "Derived"
              }
            },
            {
              "OID": "ADLBC.A1HI._CK",
              "mandatory": false,
              "name": "_CK",
              "label": "Creatine Kinase (U/L) change from previous visit, relative to normal range",
              "dataType": "integer",
              "length": 8,
              "origin": {
                "type": "Derived"
              }
            },
            {
              "OID": "ADLBC.A1HI._CL",
              "mandatory": false,
              "name": "_CL",
              "label": "Chloride (mmol/L) change from previous visit, relative to normal range",
              "dataType": "integer",
              "length": 8,
              "origin": {
                "type": "Derived"
              }
            },
            {
              "OID": "ADLBC.A1HI._CREAT",
              "mandatory": false,
              "name": "_CREAT",
              "label": "Creatinine (umol/L) change from previous visit, relative to normal range",
              "dataType": "integer",
              "length": 8,
              "origin": {
                "type": "Derived"
              }
            },
            {
              "OID": "ADLBC.A1HI._GGT",
              "mandatory": false,
              "name": "_GGT",
              "label": "Gamma Glutamyl Transferase (U/L) change from previous visit, relative to normal range",
              "dataType": "integer",
              "length": 8,
              "origin": {
                "type": "Derived"
              }
            },
            {
              "OID": "ADLBC.A1HI._GLUC",
              "mandatory": false,
              "name": "_GLUC",
              "label": "Glucose (mmol/L) change from previous visit, relative to normal range",
              "dataType": "integer",
              "length": 8,
              "origin": {
                "type": "Derived"
              }
            },
            {
              "OID": "ADLBC.A1HI._K",
              "mandatory": false,
              "name": "_K",
              "label": "Potassium (mmol/L) change from previous visit, relative to normal range",
              "dataType": "integer",
              "length": 8,
              "origin": {
                "type": "Derived"
              }
            },
            {
              "OID": "ADLBC.A1HI._PHOS",
              "mandatory": false,
              "name": "_PHOS",
              "label": "Phosphate (mmol/L) change from previous visit, relative to normal range",
              "dataType": "integer",
              "length": 8,
              "origin": {
                "type": "Derived"
              }
            },
            {
              "OID": "ADLBC.A1HI._PROT",
              "mandatory": false,
              "name": "_PROT",
              "label": "Protein (g/L) change from previous visit, relative to normal range",
              "dataType": "integer",
              "length": 8,
              "origin": {
                "type": "Derived"
              }
            },
            {
              "OID": "ADLBC.A1HI._SODIUM",
              "mandatory": false,
              "name": "_SODIUM",
              "label": "Sodium (mmol/L) change from previous visit, relative to normal range",
              "dataType": "integer",
              "length": 8,
              "origin": {
                "type": "Derived"
              }
            },
            {
              "OID": "ADLBC.A1HI._URATE",
              "mandatory": false,
              "name": "_URATE",
              "label": "Urate (umol/L) change from previous visit, relative to normal range",
              "dataType": "integer",
              "length": 8,
              "origin": {
                "type": "Derived"
              }
            }
          ]
        },
        {
          "OID": "ValueList.ADLBC.A1LO",
          "name": "ADLBC_A1LO",
          "type": "ValueList",
          "items": [
            {
              "OID": "ADLBC.A1LO.ALB",
              "mandatory": false,
              "name": "ALB",
              "label": "Albumin (g/L)",
              "dataType": "integer",
              "length": 8,
              "origin": {
                "type": "Derived"
              }
            },
            {
              "OID": "ADLBC.A1LO.ALP",
              "mandatory": false,
              "name": "ALP",
              "label": "Alkaline Phosphatase (U/L)",
              "dataType": "integer",
              "length": 8,
              "origin": {
                "type": "Derived"
              }
            },
            {
              "OID": "ADLBC.A1LO.ALT",
              "mandatory": false,
              "name": "ALT",
              "label": "Alanine Aminotransferase (U/L)",
              "dataType": "integer",
              "length": 8,
              "origin": {
                "type": "Derived"
              }
            },
            {
              "OID": "ADLBC.A1LO.AST",
              "mandatory": false,
              "name": "AST",
              "label": "Aspartate Aminotransferase (U/L)",
              "dataType": "integer",
              "length": 8,
              "origin": {
                "type": "Derived"
              }
            },
            {
              "OID": "ADLBC.A1LO.BILI",
              "mandatory": false,
              "name": "BILI",
              "label": "Bilirubin (umol/L)",
              "displayFormat": "6.2",
              "significantDigits": 2,
              "dataType": "float",
              "length": 8,
              "origin": {
                "type": "Derived"
              }
            },
            {
              "OID": "ADLBC.A1LO.BUN",
              "mandatory": false,
              "name": "BUN",
              "label": "Blood Urea Nitrogen (mmol/L)",
              "displayFormat": "7.3",
              "significantDigits": 3,
              "dataType": "float",
              "length": 8,
              "origin": {
                "type": "Derived"
              }
            },
            {
              "OID": "ADLBC.A1LO.CA",
              "mandatory": false,
              "name": "CA",
              "label": "Calcium (mmol/L)",
              "displayFormat": "8.5",
              "significantDigits": 5,
              "dataType": "float",
              "length": 8,
              "origin": {
                "type": "Derived"
              }
            },
            {
              "OID": "ADLBC.A1LO.CHOL",
              "mandatory": false,
              "name": "CHOL",
              "label": "Cholesterol (mmol/L)",
              "displayFormat": "8.5",
              "significantDigits": 5,
              "dataType": "float",
              "length": 8,
              "origin": {
                "type": "Derived"
              }
            },
            {
              "OID": "ADLBC.A1LO.CK",
              "mandatory": false,
              "name": "CK",
              "label": "Creatine Kinase (U/L)",
              "dataType": "integer",
              "length": 8,
              "origin": {
                "type": "Derived"
              }
            },
            {
              "OID": "ADLBC.A1LO.CL",
              "mandatory": false,
              "name": "CL",
              "label": "Chloride (mmol/L)",
              "dataType": "integer",
              "length": 8,
              "origin": {
                "type": "Derived"
              }
            },
            {
              "OID": "ADLBC.A1LO.CREAT",
              "mandatory": false,
              "name": "CREAT",
              "label": "Creatinine (umol/L)",
              "displayFormat": "6.2",
              "significantDigits": 2,
              "dataType": "float",
              "length": 8,
              "origin": {
                "type": "Derived"
              }
            },
            {
              "OID": "ADLBC.A1LO.GGT",
              "mandatory": false,
              "name": "GGT",
              "label": "Gamma Glutamyl Transferase (U/L)",
              "dataType": "integer",
              "length": 8,
              "origin": {
                "type": "Derived"
              }
            },
            {
              "OID": "ADLBC.A1LO.GLUC",
              "mandatory": false,
              "name": "GLUC",
              "label": "Glucose (mmol/L)",
              "displayFormat": "8.5",
              "significantDigits": 5,
              "dataType": "float",
              "length": 8,
              "origin": {
                "type": "Derived"
              }
            },
            {
              "OID": "ADLBC.A1LO.K",
              "mandatory": false,
              "name": "K",
              "label": "Potassium (mmol/L)",
              "displayFormat": "4.1",
              "significantDigits": 1,
              "dataType": "float",
              "length": 8,
              "origin": {
                "type": "Derived"
              }
            },
            {
              "OID": "ADLBC.A1LO.PHOS",
              "mandatory": false,
              "name": "PHOS",
              "label": "Phosphate (mmol/L)",
              "displayFormat": "7.5",
              "significantDigits": 5,
              "dataType": "float",
              "length": 8,
              "origin": {
                "type": "Derived"
              }
            },
            {
              "OID": "ADLBC.A1LO.PROT",
              "mandatory": false,
              "name": "PROT",
              "label": "Protein (g/L)",
              "dataType": "integer",
              "length": 8,
              "origin": {
                "type": "Derived"
              }
            },
            {
              "OID": "ADLBC.A1LO.SODIUM",
              "mandatory": false,
              "name": "SODIUM",
              "label": "Sodium (mmol/L)",
              "dataType": "integer",
              "length": 8,
              "origin": {
                "type": "Derived"
              }
            },
            {
              "OID": "ADLBC.A1LO.URATE",
              "mandatory": false,
              "name": "URATE",
              "label": "Urate (umol/L)",
              "displayFormat": "7.3",
              "significantDigits": 3,
              "dataType": "float",
              "length": 8,
              "origin": {
                "type": "Derived"
              }
            },
            {
              "OID": "ADLBC.A1LO._ALB",
              "mandatory": false,
              "name": "_ALB",
              "label": "Albumin (g/L) change from previous visit, relative to normal range",
              "dataType": "integer",
              "length": 8,
              "origin": {
                "type": "Derived"
              }
            },
            {
              "OID": "ADLBC.A1LO._ALP",
              "mandatory": false,
              "name": "_ALP",
              "label": "Alkaline Phosphatase (U/L) change from previous visit, relative to normal range",
              "dataType": "integer",
              "length": 8,
              "origin": {
                "type": "Derived"
              }
            },
            {
              "OID": "ADLBC.A1LO._ALT",
              "mandatory": false,
              "name": "_ALT",
              "label": "Alanine Aminotransferase (U/L) change from previous visit, relative to normal range",
              "dataType": "integer",
              "length": 8,
              "origin": {
                "type": "Derived"
              }
            },
            {
              "OID": "ADLBC.A1LO._AST",
              "mandatory": false,
              "name": "_AST",
              "label": "Aspartate Aminotransferase (U/L) change from previous visit, relative to normal range",
              "dataType": "integer",
              "length": 8,
              "origin": {
                "type": "Derived"
              }
            },
            {
              "OID": "ADLBC.A1LO._BILI",
              "mandatory": false,
              "name": "_BILI",
              "label": "Bilirubin (umol/L) change from previous visit, relative to normal range",
              "dataType": "integer",
              "length": 8,
              "origin": {
                "type": "Derived"
              }
            },
            {
              "OID": "ADLBC.A1LO._BUN",
              "mandatory": false,
              "name": "_BUN",
              "label": "Blood Urea Nitrogen (mmol/L) change from previous visit, relative to normal range",
              "dataType": "integer",
              "length": 8,
              "origin": {
                "type": "Derived"
              }
            },
            {
              "OID": "ADLBC.A1LO._CA",
              "mandatory": false,
              "name": "_CA",
              "label": "Calcium (mmol/L) change from previous visit, relative to normal range",
              "dataType": "integer",
              "length": 8,
              "origin": {
                "type": "Derived"
              }
            },
            {
              "OID": "ADLBC.A1LO._CHOL",
              "mandatory": false,
              "name": "_CHOL",
              "label": "Cholesterol (mmol/L) change from previous visit, relative to normal range",
              "dataType": "integer",
              "length": 8,
              "origin": {
                "type": "Derived"
              }
            },
            {
              "OID": "ADLBC.A1LO._CK",
              "mandatory": false,
              "name": "_CK",
              "label": "Creatine Kinase (U/L) change from previous visit, relative to normal range",
              "dataType": "integer",
              "length": 8,
              "origin": {
                "type": "Derived"
              }
            },
            {
              "OID": "ADLBC.A1LO._CL",
              "mandatory": false,
              "name": "_CL",
              "label": "Chloride (mmol/L) change from previous visit, relative to normal range",
              "dataType": "integer",
              "length": 8,
              "origin": {
                "type": "Derived"
              }
            },
            {
              "OID": "ADLBC.A1LO._CREAT",
              "mandatory": false,
              "name": "_CREAT",
              "label": "Creatinine (umol/L) change from previous visit, relative to normal range",
              "dataType": "integer",
              "length": 8,
              "origin": {
                "type": "Derived"
              }
            },
            {
              "OID": "ADLBC.A1LO._GGT",
              "mandatory": false,
              "name": "_GGT",
              "label": "Gamma Glutamyl Transferase (U/L) change from previous visit, relative to normal range",
              "dataType": "integer",
              "length": 8,
              "origin": {
                "type": "Derived"
              }
            },
            {
              "OID": "ADLBC.A1LO._GLUC",
              "mandatory": false,
              "name": "_GLUC",
              "label": "Glucose (mmol/L) change from previous visit, relative to normal range",
              "dataType": "integer",
              "length": 8,
              "origin": {
                "type": "Derived"
              }
            },
            {
              "OID": "ADLBC.A1LO._K",
              "mandatory": false,
              "name": "_K",
              "label": "Potassium (mmol/L) change from previous visit, relative to normal range",
              "dataType": "integer",
              "length": 8,
              "origin": {
                "type": "Derived"
              }
            },
            {
              "OID": "ADLBC.A1LO._PHOS",
              "mandatory": false,
              "name": "_PHOS",
              "label": "Phosphate (mmol/L) change from previous visit, relative to normal range",
              "dataType": "integer",
              "length": 8,
              "origin": {
                "type": "Derived"
              }
            },
            {
              "OID": "ADLBC.A1LO._PROT",
              "mandatory": false,
              "name": "_PROT",
              "label": "Protein (g/L) change from previous visit, relative to normal range",
              "dataType": "integer",
              "length": 8,
              "origin": {
                "type": "Derived"
              }
            },
            {
              "OID": "ADLBC.A1LO._SODIUM",
              "mandatory": false,
              "name": "_SODIUM",
              "label": "Sodium (mmol/L) change from previous visit, relative to normal range",
              "dataType": "integer",
              "length": 8,
              "origin": {
                "type": "Derived"
              }
            },
            {
              "OID": "ADLBC.A1LO._URATE",
              "mandatory": false,
              "name": "_URATE",
              "label": "Urate (umol/L) change from previous visit, relative to normal range",
              "dataType": "integer",
              "length": 8,
              "origin": {
                "type": "Derived"
              }
            }
          ]
        },
        {
          "OID": "ValueList.ADLBC.ABLFL",
          "name": "ADLBC_ABLFL",
          "type": "ValueList",
          "items": [
            {
              "OID": "ADLBC.ABLFL.ALB",
              "mandatory": false,
              "name": "ALB",
              "label": "Albumin (g/L)",
              "dataType": "text",
              "length": 1,
              "codeList": "Y_BLANK",
              "origin": {
                "type": "Derived"
              }
            },
            {
              "OID": "ADLBC.ABLFL.ALP",
              "mandatory": false,
              "name": "ALP",
              "label": "Alkaline Phosphatase (U/L)",
              "dataType": "text",
              "length": 1,
              "codeList": "Y_BLANK",
              "origin": {
                "type": "Derived"
              }
            },
            {
              "OID": "ADLBC.ABLFL.ALT",
              "mandatory": false,
              "name": "ALT",
              "label": "Alanine Aminotransferase (U/L)",
              "dataType": "text",
              "length": 1,
              "codeList": "Y_BLANK",
              "origin": {
                "type": "Derived"
              }
            },
            {
              "OID": "ADLBC.ABLFL.AST",
              "mandatory": false,
              "name": "AST",
              "label": "Aspartate Aminotransferase (U/L)",
              "dataType": "text",
              "length": 1,
              "codeList": "Y_BLANK",
              "origin": {
                "type": "Derived"
              }
            },
            {
              "OID": "ADLBC.ABLFL.BILI",
              "mandatory": false,
              "name": "BILI",
              "label": "Bilirubin (umol/L)",
              "dataType": "text",
              "length": 1,
              "codeList": "Y_BLANK",
              "origin": {
                "type": "Derived"
              }
            },
            {
              "OID": "ADLBC.ABLFL.BUN",
              "mandatory": false,
              "name": "BUN",
              "label": "Blood Urea Nitrogen (mmol/L)",
              "dataType": "text",
              "length": 1,
              "codeList": "Y_BLANK",
              "origin": {
                "type": "Derived"
              }
            },
            {
              "OID": "ADLBC.ABLFL.CA",
              "mandatory": false,
              "name": "CA",
              "label": "Calcium (mmol/L)",
              "dataType": "text",
              "length": 1,
              "codeList": "Y_BLANK",
              "origin": {
                "type": "Derived"
              }
            },
            {
              "OID": "ADLBC.ABLFL.CHOL",
              "mandatory": false,
              "name": "CHOL",
              "label": "Cholesterol (mmol/L)",
              "dataType": "text",
              "length": 1,
              "codeList": "Y_BLANK",
              "origin": {
                "type": "Derived"
              }
            },
            {
              "OID": "ADLBC.ABLFL.CK",
              "mandatory": false,
              "name": "CK",
              "label": "Creatine Kinase (U/L)",
              "dataType": "text",
              "length": 1,
              "codeList": "Y_BLANK",
              "origin": {
                "type": "Derived"
              }
            },
            {
              "OID": "ADLBC.ABLFL.CL",
              "mandatory": false,
              "name": "CL",
              "label": "Chloride (mmol/L)",
              "dataType": "text",
              "length": 1,
              "codeList": "Y_BLANK",
              "origin": {
                "type": "Derived"
              }
            },
            {
              "OID": "ADLBC.ABLFL.CREAT",
              "mandatory": false,
              "name": "CREAT",
              "label": "Creatinine (umol/L)",
              "dataType": "text",
              "length": 1,
              "codeList": "Y_BLANK",
              "origin": {
                "type": "Derived"
              }
            },
            {
              "OID": "ADLBC.ABLFL.GGT",
              "mandatory": false,
              "name": "GGT",
              "label": "Gamma Glutamyl Transferase (U/L)",
              "dataType": "text",
              "length": 1,
              "codeList": "Y_BLANK",
              "origin": {
                "type": "Derived"
              }
            },
            {
              "OID": "ADLBC.ABLFL.GLUC",
              "mandatory": false,
              "name": "GLUC",
              "label": "Glucose (mmol/L)",
              "dataType": "text",
              "length": 1,
              "codeList": "Y_BLANK",
              "origin": {
                "type": "Derived"
              }
            },
            {
              "OID": "ADLBC.ABLFL.K",
              "mandatory": false,
              "name": "K",
              "label": "Potassium (mmol/L)",
              "dataType": "text",
              "length": 1,
              "codeList": "Y_BLANK",
              "origin": {
                "type": "Derived"
              }
            },
            {
              "OID": "ADLBC.ABLFL.PHOS",
              "mandatory": false,
              "name": "PHOS",
              "label": "Phosphate (mmol/L)",
              "dataType": "text",
              "length": 1,
              "codeList": "Y_BLANK",
              "origin": {
                "type": "Derived"
              }
            },
            {
              "OID": "ADLBC.ABLFL.PROT",
              "mandatory": false,
              "name": "PROT",
              "label": "Protein (g/L)",
              "dataType": "text",
              "length": 1,
              "codeList": "Y_BLANK",
              "origin": {
                "type": "Derived"
              }
            },
            {
              "OID": "ADLBC.ABLFL.SODIUM",
              "mandatory": false,
              "name": "SODIUM",
              "label": "Sodium (mmol/L)",
              "dataType": "text",
              "length": 1,
              "codeList": "Y_BLANK",
              "origin": {
                "type": "Derived"
              }
            },
            {
              "OID": "ADLBC.ABLFL.URATE",
              "mandatory": false,
              "name": "URATE",
              "label": "Urate (umol/L)",
              "dataType": "text",
              "length": 1,
              "codeList": "Y_BLANK",
              "origin": {
                "type": "Derived"
              }
            },
            {
              "OID": "ADLBC.ABLFL._ALB",
              "mandatory": false,
              "name": "_ALB",
              "label": "Albumin (g/L) change from previous visit, relative to normal range",
              "dataType": "text",
              "length": 1,
              "origin": {
                "type": "Derived"
              }
            },
            {
              "OID": "ADLBC.ABLFL._ALP",
              "mandatory": false,
              "name": "_ALP",
              "label": "Alkaline Phosphatase (U/L) change from previous visit, relative to normal range",
              "dataType": "text",
              "length": 1,
              "origin": {
                "type": "Derived"
              }
            },
            {
              "OID": "ADLBC.ABLFL._ALT",
              "mandatory": false,
              "name": "_ALT",
              "label": "Alanine Aminotransferase (U/L) change from previous visit, relative to normal range",
              "dataType": "text",
              "length": 1,
              "origin": {
                "type": "Derived"
              }
            },
            {
              "OID": "ADLBC.ABLFL._AST",
              "mandatory": false,
              "name": "_AST",
              "label": "Aspartate Aminotransferase (U/L) change from previous visit, relative to normal range",
              "dataType": "text",
              "length": 1,
              "origin": {
                "type": "Derived"
              }
            },
            {
              "OID": "ADLBC.ABLFL._BILI",
              "mandatory": false,
              "name": "_BILI",
              "label": "Bilirubin (umol/L) change from previous visit, relative to normal range",
              "dataType": "text",
              "length": 1,
              "origin": {
                "type": "Derived"
              }
            },
            {
              "OID": "ADLBC.ABLFL._BUN",
              "mandatory": false,
              "name": "_BUN",
              "label": "Blood Urea Nitrogen (mmol/L) change from previous visit, relative to normal range",
              "dataType": "text",
              "length": 1,
              "origin": {
                "type": "Derived"
              }
            },
            {
              "OID": "ADLBC.ABLFL._CA",
              "mandatory": false,
              "name": "_CA",
              "label": "Calcium (mmol/L) change from previous visit, relative to normal range",
              "dataType": "text",
              "length": 1,
              "origin": {
                "type": "Derived"
              }
            },
            {
              "OID": "ADLBC.ABLFL._CHOL",
              "mandatory": false,
              "name": "_CHOL",
              "label": "Cholesterol (mmol/L) change from previous visit, relative to normal range",
              "dataType": "text",
              "length": 1,
              "origin": {
                "type": "Derived"
              }
            },
            {
              "OID": "ADLBC.ABLFL._CK",
              "mandatory": false,
              "name": "_CK",
              "label": "Creatine Kinase (U/L) change from previous visit, relative to normal range",
              "dataType": "text",
              "length": 1,
              "origin": {
                "type": "Derived"
              }
            },
            {
              "OID": "ADLBC.ABLFL._CL",
              "mandatory": false,
              "name": "_CL",
              "label": "Chloride (mmol/L) change from previous visit, relative to normal range",
              "dataType": "text",
              "length": 1,
              "origin": {
                "type": "Derived"
              }
            },
            {
              "OID": "ADLBC.ABLFL._CREAT",
              "mandatory": false,
              "name": "_CREAT",
              "label": "Creatinine (umol/L) change from previous visit, relative to normal range",
              "dataType": "text",
              "length": 1,
              "origin": {
                "type": "Derived"
              }
            },
            {
              "OID": "ADLBC.ABLFL._GGT",
              "mandatory": false,
              "name": "_GGT",
              "label": "Gamma Glutamyl Transferase (U/L) change from previous visit, relative to normal range",
              "dataType": "text",
              "length": 1,
              "origin": {
                "type": "Derived"
              }
            },
            {
              "OID": "ADLBC.ABLFL._GLUC",
              "mandatory": false,
              "name": "_GLUC",
              "label": "Glucose (mmol/L) change from previous visit, relative to normal range",
              "dataType": "text",
              "length": 1,
              "origin": {
                "type": "Derived"
              }
            },
            {
              "OID": "ADLBC.ABLFL._K",
              "mandatory": false,
              "name": "_K",
              "label": "Potassium (mmol/L) change from previous visit, relative to normal range",
              "dataType": "text",
              "length": 1,
              "origin": {
                "type": "Derived"
              }
            },
            {
              "OID": "ADLBC.ABLFL._PHOS",
              "mandatory": false,
              "name": "_PHOS",
              "label": "Phosphate (mmol/L) change from previous visit, relative to normal range",
              "dataType": "text",
              "length": 1,
              "origin": {
                "type": "Derived"
              }
            },
            {
              "OID": "ADLBC.ABLFL._PROT",
              "mandatory": false,
              "name": "_PROT",
              "label": "Protein (g/L) change from previous visit, relative to normal range",
              "dataType": "text",
              "length": 1,
              "origin": {
                "type": "Derived"
              }
            },
            {
              "OID": "ADLBC.ABLFL._SODIUM",
              "mandatory": false,
              "name": "_SODIUM",
              "label": "Sodium (mmol/L) change from previous visit, relative to normal range",
              "dataType": "text",
              "length": 1,
              "origin": {
                "type": "Derived"
              }
            },
            {
              "OID": "ADLBC.ABLFL._URATE",
              "mandatory": false,
              "name": "_URATE",
              "label": "Urate (umol/L) change from previous visit, relative to normal range",
              "dataType": "text",
              "length": 1,
              "origin": {
                "type": "Derived"
              }
            }
          ]
        },
        {
          "OID": "ValueList.ADLBC.ANL01FL",
          "name": "ADLBC_ANL01FL",
          "type": "ValueList",
          "items": [
            {
              "OID": "ADLBC.ANL01FL.ALB",
              "mandatory": false,
              "name": "ALB",
              "label": "Albumin (g/L)",
              "dataType": "text",
              "length": 1,
              "codeList": "Y_BLANK",
              "origin": {
                "type": "Derived"
              }
            },
            {
              "OID": "ADLBC.ANL01FL.ALP",
              "mandatory": false,
              "name": "ALP",
              "label": "Alkaline Phosphatase (U/L)",
              "dataType": "text",
              "length": 1,
              "codeList": "Y_BLANK",
              "origin": {
                "type": "Derived"
              }
            },
            {
              "OID": "ADLBC.ANL01FL.ALT",
              "mandatory": false,
              "name": "ALT",
              "label": "Alanine Aminotransferase (U/L)",
              "dataType": "text",
              "length": 1,
              "codeList": "Y_BLANK",
              "origin": {
                "type": "Derived"
              }
            },
            {
              "OID": "ADLBC.ANL01FL.AST",
              "mandatory": false,
              "name": "AST",
              "label": "Aspartate Aminotransferase (U/L)",
              "dataType": "text",
              "length": 1,
              "codeList": "Y_BLANK",
              "origin": {
                "type": "Derived"
              }
            },
            {
              "OID": "ADLBC.ANL01FL.BILI",
              "mandatory": false,
              "name": "BILI",
              "label": "Bilirubin (umol/L)",
              "dataType": "text",
              "length": 1,
              "codeList": "Y_BLANK",
              "origin": {
                "type": "Derived"
              }
            },
            {
              "OID": "ADLBC.ANL01FL.BUN",
              "mandatory": false,
              "name": "BUN",
              "label": "Blood Urea Nitrogen (mmol/L)",
              "dataType": "text",
              "length": 1,
              "codeList": "Y_BLANK",
              "origin": {
                "type": "Derived"
              }
            },
            {
              "OID": "ADLBC.ANL01FL.CA",
              "mandatory": false,
              "name": "CA",
              "label": "Calcium (mmol/L)",
              "dataType": "text",
              "length": 1,
              "codeList": "Y_BLANK",
              "origin": {
                "type": "Derived"
              }
            },
            {
              "OID": "ADLBC.ANL01FL.CHOL",
              "mandatory": false,
              "name": "CHOL",
              "label": "Cholesterol (mmol/L)",
              "dataType": "text",
              "length": 1,
              "codeList": "Y_BLANK",
              "origin": {
                "type": "Derived"
              }
            },
            {
              "OID": "ADLBC.ANL01FL.CK",
              "mandatory": false,
              "name": "CK",
              "label": "Creatine Kinase (U/L)",
              "dataType": "text",
              "length": 1,
              "codeList": "Y_BLANK",
              "origin": {
                "type": "Derived"
              }
            },
            {
              "OID": "ADLBC.ANL01FL.CL",
              "mandatory": false,
              "name": "CL",
              "label": "Chloride (mmol/L)",
              "dataType": "text",
              "length": 1,
              "codeList": "Y_BLANK",
              "origin": {
                "type": "Derived"
              }
            },
            {
              "OID": "ADLBC.ANL01FL.CREAT",
              "mandatory": false,
              "name": "CREAT",
              "label": "Creatinine (umol/L)",
              "dataType": "text",
              "length": 1,
              "codeList": "Y_BLANK",
              "origin": {
                "type": "Derived"
              }
            },
            {
              "OID": "ADLBC.ANL01FL.GGT",
              "mandatory": false,
              "name": "GGT",
              "label": "Gamma Glutamyl Transferase (U/L)",
              "dataType": "text",
              "length": 1,
              "codeList": "Y_BLANK",
              "origin": {
                "type": "Derived"
              }
            },
            {
              "OID": "ADLBC.ANL01FL.GLUC",
              "mandatory": false,
              "name": "GLUC",
              "label": "Glucose (mmol/L)",
              "dataType": "text",
              "length": 1,
              "codeList": "Y_BLANK",
              "origin": {
                "type": "Derived"
              }
            },
            {
              "OID": "ADLBC.ANL01FL.K",
              "mandatory": false,
              "name": "K",
              "label": "Potassium (mmol/L)",
              "dataType": "text",
              "length": 1,
              "codeList": "Y_BLANK",
              "origin": {
                "type": "Derived"
              }
            },
            {
              "OID": "ADLBC.ANL01FL.PHOS",
              "mandatory": false,
              "name": "PHOS",
              "label": "Phosphate (mmol/L)",
              "dataType": "text",
              "length": 1,
              "codeList": "Y_BLANK",
              "origin": {
                "type": "Derived"
              }
            },
            {
              "OID": "ADLBC.ANL01FL.PROT",
              "mandatory": false,
              "name": "PROT",
              "label": "Protein (g/L)",
              "dataType": "text",
              "length": 1,
              "codeList": "Y_BLANK",
              "origin": {
                "type": "Derived"
              }
            },
            {
              "OID": "ADLBC.ANL01FL.SODIUM",
              "mandatory": false,
              "name": "SODIUM",
              "label": "Sodium (mmol/L)",
              "dataType": "text",
              "length": 1,
              "codeList": "Y_BLANK",
              "origin": {
                "type": "Derived"
              }
            },
            {
              "OID": "ADLBC.ANL01FL.URATE",
              "mandatory": false,
              "name": "URATE",
              "label": "Urate (umol/L)",
              "dataType": "text",
              "length": 1,
              "codeList": "Y_BLANK",
              "origin": {
                "type": "Derived"
              }
            },
            {
              "OID": "ADLBC.ANL01FL._ALB",
              "mandatory": false,
              "name": "_ALB",
              "label": "Albumin (g/L) change from previous visit, relative to normal range",
              "dataType": "text",
              "length": 1,
              "codeList": "Y_BLANK",
              "origin": {
                "type": "Derived"
              }
            },
            {
              "OID": "ADLBC.ANL01FL._ALP",
              "mandatory": false,
              "name": "_ALP",
              "label": "Alkaline Phosphatase (U/L) change from previous visit, relative to normal range",
              "dataType": "text",
              "length": 1,
              "codeList": "Y_BLANK",
              "origin": {
                "type": "Derived"
              }
            },
            {
              "OID": "ADLBC.ANL01FL._ALT",
              "mandatory": false,
              "name": "_ALT",
              "label": "Alanine Aminotransferase (U/L) change from previous visit, relative to normal range",
              "dataType": "text",
              "length": 1,
              "codeList": "Y_BLANK",
              "origin": {
                "type": "Derived"
              }
            },
            {
              "OID": "ADLBC.ANL01FL._AST",
              "mandatory": false,
              "name": "_AST",
              "label": "Aspartate Aminotransferase (U/L) change from previous visit, relative to normal range",
              "dataType": "text",
              "length": 1,
              "codeList": "Y_BLANK",
              "origin": {
                "type": "Derived"
              }
            },
            {
              "OID": "ADLBC.ANL01FL._BILI",
              "mandatory": false,
              "name": "_BILI",
              "label": "Bilirubin (umol/L) change from previous visit, relative to normal range",
              "dataType": "text",
              "length": 1,
              "codeList": "Y_BLANK",
              "origin": {
                "type": "Derived"
              }
            },
            {
              "OID": "ADLBC.ANL01FL._BUN",
              "mandatory": false,
              "name": "_BUN",
              "label": "Blood Urea Nitrogen (mmol/L) change from previous visit, relative to normal range",
              "dataType": "text",
              "length": 1,
              "codeList": "Y_BLANK",
              "origin": {
                "type": "Derived"
              }
            },
            {
              "OID": "ADLBC.ANL01FL._CA",
              "mandatory": false,
              "name": "_CA",
              "label": "Calcium (mmol/L) change from previous visit, relative to normal range",
              "dataType": "text",
              "length": 1,
              "codeList": "Y_BLANK",
              "origin": {
                "type": "Derived"
              }
            },
            {
              "OID": "ADLBC.ANL01FL._CHOL",
              "mandatory": false,
              "name": "_CHOL",
              "label": "Cholesterol (mmol/L) change from previous visit, relative to normal range",
              "dataType": "text",
              "length": 1,
              "codeList": "Y_BLANK",
              "origin": {
                "type": "Derived"
              }
            },
            {
              "OID": "ADLBC.ANL01FL._CK",
              "mandatory": false,
              "name": "_CK",
              "label": "Creatine Kinase (U/L) change from previous visit, relative to normal range",
              "dataType": "text",
              "length": 1,
              "codeList": "Y_BLANK",
              "origin": {
                "type": "Derived"
              }
            },
            {
              "OID": "ADLBC.ANL01FL._CL",
              "mandatory": false,
              "name": "_CL",
              "label": "Chloride (mmol/L) change from previous visit, relative to normal range",
              "dataType": "text",
              "length": 1,
              "codeList": "Y_BLANK",
              "origin": {
                "type": "Derived"
              }
            },
            {
              "OID": "ADLBC.ANL01FL._CREAT",
              "mandatory": false,
              "name": "_CREAT",
              "label": "Creatinine (umol/L) change from previous visit, relative to normal range",
              "dataType": "text",
              "length": 1,
              "codeList": "Y_BLANK",
              "origin": {
                "type": "Derived"
              }
            },
            {
              "OID": "ADLBC.ANL01FL._GGT",
              "mandatory": false,
              "name": "_GGT",
              "label": "Gamma Glutamyl Transferase (U/L) change from previous visit, relative to normal range",
              "dataType": "text",
              "length": 1,
              "codeList": "Y_BLANK",
              "origin": {
                "type": "Derived"
              }
            },
            {
              "OID": "ADLBC.ANL01FL._GLUC",
              "mandatory": false,
              "name": "_GLUC",
              "label": "Glucose (mmol/L) change from previous visit, relative to normal range",
              "dataType": "text",
              "length": 1,
              "codeList": "Y_BLANK",
              "origin": {
                "type": "Derived"
              }
            },
            {
              "OID": "ADLBC.ANL01FL._K",
              "mandatory": false,
              "name": "_K",
              "label": "Potassium (mmol/L) change from previous visit, relative to normal range",
              "dataType": "text",
              "length": 1,
              "codeList": "Y_BLANK",
              "origin": {
                "type": "Derived"
              }
            },
            {
              "OID": "ADLBC.ANL01FL._PHOS",
              "mandatory": false,
              "name": "_PHOS",
              "label": "Phosphate (mmol/L) change from previous visit, relative to normal range",
              "dataType": "text",
              "length": 1,
              "codeList": "Y_BLANK",
              "origin": {
                "type": "Derived"
              }
            },
            {
              "OID": "ADLBC.ANL01FL._PROT",
              "mandatory": false,
              "name": "_PROT",
              "label": "Protein (g/L) change from previous visit, relative to normal range",
              "dataType": "text",
              "length": 1,
              "codeList": "Y_BLANK",
              "origin": {
                "type": "Derived"
              }
            },
            {
              "OID": "ADLBC.ANL01FL._SODIUM",
              "mandatory": false,
              "name": "_SODIUM",
              "label": "Sodium (mmol/L) change from previous visit, relative to normal range",
              "dataType": "text",
              "length": 1,
              "codeList": "Y_BLANK",
              "origin": {
                "type": "Derived"
              }
            },
            {
              "OID": "ADLBC.ANL01FL._URATE",
              "mandatory": false,
              "name": "_URATE",
              "label": "Urate (umol/L) change from previous visit, relative to normal range",
              "dataType": "text",
              "length": 1,
              "codeList": "Y_BLANK",
              "origin": {
                "type": "Derived"
              }
            }
          ]
        },
        {
          "OID": "ValueList.ADLBC.ANRIND",
          "name": "ADLBC_ANRIND",
          "type": "ValueList",
          "items": [
            {
              "OID": "ADLBC.ANRIND.ALB",
              "mandatory": false,
              "name": "ALB",
              "label": "Albumin (g/L)",
              "dataType": "text",
              "length": 1,
              "codeList": "LNH",
              "origin": {
                "type": "Derived"
              }
            },
            {
              "OID": "ADLBC.ANRIND.ALP",
              "mandatory": false,
              "name": "ALP",
              "label": "Alkaline Phosphatase (U/L)",
              "dataType": "text",
              "length": 1,
              "codeList": "LNH",
              "origin": {
                "type": "Derived"
              }
            },
            {
              "OID": "ADLBC.ANRIND.ALT",
              "mandatory": false,
              "name": "ALT",
              "label": "Alanine Aminotransferase (U/L)",
              "dataType": "text",
              "length": 1,
              "codeList": "LNH",
              "origin": {
                "type": "Derived"
              }
            },
            {
              "OID": "ADLBC.ANRIND.AST",
              "mandatory": false,
              "name": "AST",
              "label": "Aspartate Aminotransferase (U/L)",
              "dataType": "text",
              "length": 1,
              "codeList": "LNH",
              "origin": {
                "type": "Derived"
              }
            },
            {
              "OID": "ADLBC.ANRIND.BILI",
              "mandatory": false,
              "name": "BILI",
              "label": "Bilirubin (umol/L)",
              "dataType": "text",
              "length": 1,
              "codeList": "LNH",
              "origin": {
                "type": "Derived"
              }
            },
            {
              "OID": "ADLBC.ANRIND.BUN",
              "mandatory": false,
              "name": "BUN",
              "label": "Blood Urea Nitrogen (mmol/L)",
              "dataType": "text",
              "length": 1,
              "codeList": "LNH",
              "origin": {
                "type": "Derived"
              }
            },
            {
              "OID": "ADLBC.ANRIND.CA",
              "mandatory": false,
              "name": "CA",
              "label": "Calcium (mmol/L)",
              "dataType": "text",
              "length": 1,
              "codeList": "LNH",
              "origin": {
                "type": "Derived"
              }
            },
            {
              "OID": "ADLBC.ANRIND.CHOL",
              "mandatory": false,
              "name": "CHOL",
              "label": "Cholesterol (mmol/L)",
              "dataType": "text",
              "length": 1,
              "codeList": "LNH",
              "origin": {
                "type": "Derived"
              }
            },
            {
              "OID": "ADLBC.ANRIND.CK",
              "mandatory": false,
              "name": "CK",
              "label": "Creatine Kinase (U/L)",
              "dataType": "text",
              "length": 1,
              "codeList": "LNH",
              "origin": {
                "type": "Derived"
              }
            },
            {
              "OID": "ADLBC.ANRIND.CL",
              "mandatory": false,
              "name": "CL",
              "label": "Chloride (mmol/L)",
              "dataType": "text",
              "length": 1,
              "codeList": "LNH",
              "origin": {
                "type": "Derived"
              }
            },
            {
              "OID": "ADLBC.ANRIND.CREAT",
              "mandatory": false,
              "name": "CREAT",
              "label": "Creatinine (umol/L)",
              "dataType": "text",
              "length": 1,
              "codeList": "LNH",
              "origin": {
                "type": "Derived"
              }
            },
            {
              "OID": "ADLBC.ANRIND.GGT",
              "mandatory": false,
              "name": "GGT",
              "label": "Gamma Glutamyl Transferase (U/L)",
              "dataType": "text",
              "length": 1,
              "codeList": "LNH",
              "origin": {
                "type": "Derived"
              }
            },
            {
              "OID": "ADLBC.ANRIND.GLUC",
              "mandatory": false,
              "name": "GLUC",
              "label": "Glucose (mmol/L)",
              "dataType": "text",
              "length": 1,
              "codeList": "LNH",
              "origin": {
                "type": "Derived"
              }
            },
            {
              "OID": "ADLBC.ANRIND.K",
              "mandatory": false,
              "name": "K",
              "label": "Potassium (mmol/L)",
              "dataType": "text",
              "length": 1,
              "codeList": "LNH",
              "origin": {
                "type": "Derived"
              }
            },
            {
              "OID": "ADLBC.ANRIND.PHOS",
              "mandatory": false,
              "name": "PHOS",
              "label": "Phosphate (mmol/L)",
              "dataType": "text",
              "length": 1,
              "codeList": "LNH",
              "origin": {
                "type": "Derived"
              }
            },
            {
              "OID": "ADLBC.ANRIND.PROT",
              "mandatory": false,
              "name": "PROT",
              "label": "Protein (g/L)",
              "dataType": "text",
              "length": 1,
              "codeList": "LNH",
              "origin": {
                "type": "Derived"
              }
            },
            {
              "OID": "ADLBC.ANRIND.SODIUM",
              "mandatory": false,
              "name": "SODIUM",
              "label": "Sodium (mmol/L)",
              "dataType": "text",
              "length": 1,
              "codeList": "LNH",
              "origin": {
                "type": "Derived"
              }
            },
            {
              "OID": "ADLBC.ANRIND.URATE",
              "mandatory": false,
              "name": "URATE",
              "label": "Urate (umol/L)",
              "dataType": "text",
              "length": 1,
              "codeList": "LNH",
              "origin": {
                "type": "Derived"
              }
            },
            {
              "OID": "ADLBC.ANRIND._ALB",
              "mandatory": false,
              "name": "_ALB",
              "label": "Albumin (g/L) change from previous visit, relative to normal range",
              "dataType": "text",
              "length": 1,
              "codeList": "LNH",
              "origin": {
                "type": "Derived"
              }
            },
            {
              "OID": "ADLBC.ANRIND._ALP",
              "mandatory": false,
              "name": "_ALP",
              "label": "Alkaline Phosphatase (U/L) change from previous visit, relative to normal range",
              "dataType": "text",
              "length": 1,
              "codeList": "LNH",
              "origin": {
                "type": "Derived"
              }
            },
            {
              "OID": "ADLBC.ANRIND._ALT",
              "mandatory": false,
              "name": "_ALT",
              "label": "Alanine Aminotransferase (U/L) change from previous visit, relative to normal range",
              "dataType": "text",
              "length": 1,
              "codeList": "LNH",
              "origin": {
                "type": "Derived"
              }
            },
            {
              "OID": "ADLBC.ANRIND._AST",
              "mandatory": false,
              "name": "_AST",
              "label": "Aspartate Aminotransferase (U/L) change from previous visit, relative to normal range",
              "dataType": "text",
              "length": 1,
              "codeList": "LNH",
              "origin": {
                "type": "Derived"
              }
            },
            {
              "OID": "ADLBC.ANRIND._BILI",
              "mandatory": false,
              "name": "_BILI",
              "label": "Bilirubin (umol/L) change from previous visit, relative to normal range",
              "dataType": "text",
              "length": 1,
              "codeList": "LNH",
              "origin": {
                "type": "Derived"
              }
            },
            {
              "OID": "ADLBC.ANRIND._BUN",
              "mandatory": false,
              "name": "_BUN",
              "label": "Blood Urea Nitrogen (mmol/L) change from previous visit, relative to normal range",
              "dataType": "text",
              "length": 1,
              "codeList": "LNH",
              "origin": {
                "type": "Derived"
              }
            },
            {
              "OID": "ADLBC.ANRIND._CA",
              "mandatory": false,
              "name": "_CA",
              "label": "Calcium (mmol/L) change from previous visit, relative to normal range",
              "dataType": "text",
              "length": 1,
              "codeList": "LNH",
              "origin": {
                "type": "Derived"
              }
            },
            {
              "OID": "ADLBC.ANRIND._CHOL",
              "mandatory": false,
              "name": "_CHOL",
              "label": "Cholesterol (mmol/L) change from previous visit, relative to normal range",
              "dataType": "text",
              "length": 1,
              "codeList": "LNH",
              "origin": {
                "type": "Derived"
              }
            },
            {
              "OID": "ADLBC.ANRIND._CK",
              "mandatory": false,
              "name": "_CK",
              "label": "Creatine Kinase (U/L) change from previous visit, relative to normal range",
              "dataType": "text",
              "length": 1,
              "codeList": "LNH",
              "origin": {
                "type": "Derived"
              }
            },
            {
              "OID": "ADLBC.ANRIND._CL",
              "mandatory": false,
              "name": "_CL",
              "label": "Chloride (mmol/L) change from previous visit, relative to normal range",
              "dataType": "text",
              "length": 1,
              "codeList": "LNH",
              "origin": {
                "type": "Derived"
              }
            },
            {
              "OID": "ADLBC.ANRIND._CREAT",
              "mandatory": false,
              "name": "_CREAT",
              "label": "Creatinine (umol/L) change from previous visit, relative to normal range",
              "dataType": "text",
              "length": 1,
              "codeList": "LNH",
              "origin": {
                "type": "Derived"
              }
            },
            {
              "OID": "ADLBC.ANRIND._GGT",
              "mandatory": false,
              "name": "_GGT",
              "label": "Gamma Glutamyl Transferase (U/L) change from previous visit, relative to normal range",
              "dataType": "text",
              "length": 1,
              "codeList": "LNH",
              "origin": {
                "type": "Derived"
              }
            },
            {
              "OID": "ADLBC.ANRIND._GLUC",
              "mandatory": false,
              "name": "_GLUC",
              "label": "Glucose (mmol/L) change from previous visit, relative to normal range",
              "dataType": "text",
              "length": 1,
              "codeList": "LNH",
              "origin": {
                "type": "Derived"
              }
            },
            {
              "OID": "ADLBC.ANRIND._K",
              "mandatory": false,
              "name": "_K",
              "label": "Potassium (mmol/L) change from previous visit, relative to normal range",
              "dataType": "text",
              "length": 1,
              "codeList": "LNH",
              "origin": {
                "type": "Derived"
              }
            },
            {
              "OID": "ADLBC.ANRIND._PHOS",
              "mandatory": false,
              "name": "_PHOS",
              "label": "Phosphate (mmol/L) change from previous visit, relative to normal range",
              "dataType": "text",
              "length": 1,
              "codeList": "LNH",
              "origin": {
                "type": "Derived"
              }
            },
            {
              "OID": "ADLBC.ANRIND._PROT",
              "mandatory": false,
              "name": "_PROT",
              "label": "Protein (g/L) change from previous visit, relative to normal range",
              "dataType": "text",
              "length": 1,
              "codeList": "LNH",
              "origin": {
                "type": "Derived"
              }
            },
            {
              "OID": "ADLBC.ANRIND._SODIUM",
              "mandatory": false,
              "name": "_SODIUM",
              "label": "Sodium (mmol/L) change from previous visit, relative to normal range",
              "dataType": "text",
              "length": 1,
              "codeList": "LNH",
              "origin": {
                "type": "Derived"
              }
            },
            {
              "OID": "ADLBC.ANRIND._URATE",
              "mandatory": false,
              "name": "_URATE",
              "label": "Urate (umol/L) change from previous visit, relative to normal range",
              "dataType": "text",
              "length": 1,
              "codeList": "LNH",
              "origin": {
                "type": "Derived"
              }
            }
          ]
        },
        {
          "OID": "ValueList.ADLBC.AVAL",
          "name": "ADLBC_AVAL",
          "type": "ValueList",
          "items": [
            {
              "OID": "ADLBC.AVAL.ALB",
              "mandatory": false,
              "name": "ALB",
              "label": "Albumin (g/L)",
              "dataType": "integer",
              "length": 8,
              "origin": {
                "type": "Derived"
              }
            },
            {
              "OID": "ADLBC.AVAL.ALP",
              "mandatory": false,
              "name": "ALP",
              "label": "Alkaline Phosphatase (U/L)",
              "dataType": "integer",
              "length": 8,
              "origin": {
                "type": "Derived"
              }
            },
            {
              "OID": "ADLBC.AVAL.ALT",
              "mandatory": false,
              "name": "ALT",
              "label": "Alanine Aminotransferase (U/L)",
              "dataType": "integer",
              "length": 8,
              "origin": {
                "type": "Derived"
              }
            },
            {
              "OID": "ADLBC.AVAL.AST",
              "mandatory": false,
              "name": "AST",
              "label": "Aspartate Aminotransferase (U/L)",
              "dataType": "integer",
              "length": 8,
              "origin": {
                "type": "Derived"
              }
            },
            {
              "OID": "ADLBC.AVAL.BILI",
              "mandatory": false,
              "name": "BILI",
              "label": "Bilirubin (umol/L)",
              "displayFormat": "6.2",
              "significantDigits": 2,
              "dataType": "float",
              "length": 8,
              "origin": {
                "type": "Derived"
              }
            },
            {
              "OID": "ADLBC.AVAL.BUN",
              "mandatory": false,
              "name": "BUN",
              "label": "Blood Urea Nitrogen (mmol/L)",
              "displayFormat": "7.3",
              "significantDigits": 3,
              "dataType": "float",
              "length": 8,
              "origin": {
                "type": "Derived"
              }
            },
            {
              "OID": "ADLBC.AVAL.CA",
              "mandatory": false,
              "name": "CA",
              "label": "Calcium (mmol/L)",
              "displayFormat": "8.5",
              "significantDigits": 5,
              "dataType": "float",
              "length": 8,
              "origin": {
                "type": "Derived"
              }
            },
            {
              "OID": "ADLBC.AVAL.CHOL",
              "mandatory": false,
              "name": "CHOL",
              "label": "Cholesterol (mmol/L)",
              "displayFormat": "8.5",
              "significantDigits": 5,
              "dataType": "float",
              "length": 8,
              "origin": {
                "type": "Derived"
              }
            },
            {
              "OID": "ADLBC.AVAL.CK",
              "mandatory": false,
              "name": "CK",
              "label": "Creatine Kinase (U/L)",
              "dataType": "integer",
              "length": 8,
              "origin": {
                "type": "Derived"
              }
            },
            {
              "OID": "ADLBC.AVAL.CL",
              "mandatory": false,
              "name": "CL",
              "label": "Chloride (mmol/L)",
              "dataType": "integer",
              "length": 8,
              "origin": {
                "type": "Derived"
              }
            },
            {
              "OID": "ADLBC.AVAL.CREAT",
              "mandatory": false,
              "name": "CREAT",
              "label": "Creatinine (umol/L)",
              "displayFormat": "6.2",
              "significantDigits": 2,
              "dataType": "float",
              "length": 8,
              "origin": {
                "type": "Derived"
              }
            },
            {
              "OID": "ADLBC.AVAL.GGT",
              "mandatory": false,
              "name": "GGT",
              "label": "Gamma Glutamyl Transferase (U/L)",
              "dataType": "integer",
              "length": 8,
              "origin": {
                "type": "Derived"
              }
            },
            {
              "OID": "ADLBC.AVAL.GLUC",
              "mandatory": false,
              "name": "GLUC",
              "label": "Glucose (mmol/L)",
              "displayFormat": "8.5",
              "significantDigits": 5,
              "dataType": "float",
              "length": 8,
              "origin": {
                "type": "Derived"
              }
            },
            {
              "OID": "ADLBC.AVAL.K",
              "mandatory": false,
              "name": "K",
              "label": "Potassium (mmol/L)",
              "displayFormat": "4.1",
              "significantDigits": 1,
              "dataType": "float",
              "length": 8,
              "origin": {
                "type": "Derived"
              }
            },
            {
              "OID": "ADLBC.AVAL.PHOS",
              "mandatory": false,
              "name": "PHOS",
              "label": "Phosphate (mmol/L)",
              "displayFormat": "7.5",
              "significantDigits": 5,
              "dataType": "float",
              "length": 8,
              "origin": {
                "type": "Derived"
              }
            },
            {
              "OID": "ADLBC.AVAL.PROT",
              "mandatory": false,
              "name": "PROT",
              "label": "Protein (g/L)",
              "dataType": "integer",
              "length": 8,
              "origin": {
                "type": "Derived"
              }
            },
            {
              "OID": "ADLBC.AVAL.SODIUM",
              "mandatory": false,
              "name": "SODIUM",
              "label": "Sodium (mmol/L)",
              "dataType": "integer",
              "length": 8,
              "origin": {
                "type": "Derived"
              }
            },
            {
              "OID": "ADLBC.AVAL.URATE",
              "mandatory": false,
              "name": "URATE",
              "label": "Urate (umol/L)",
              "displayFormat": "7.3",
              "significantDigits": 3,
              "dataType": "float",
              "length": 8,
              "origin": {
                "type": "Derived"
              }
            },
            {
              "OID": "ADLBC.AVAL._ALB",
              "mandatory": false,
              "name": "_ALB",
              "label": "Albumin (g/L) change from previous visit, relative to normal range",
              "displayFormat": "4.1",
              "significantDigits": 1,
              "dataType": "float",
              "length": 8,
              "origin": {
                "type": "Derived"
              }
            },
            {
              "OID": "ADLBC.AVAL._ALP",
              "mandatory": false,
              "name": "_ALP",
              "label": "Alkaline Phosphatase (U/L) change from previous visit, relative to normal range",
              "displayFormat": "4.1",
              "significantDigits": 1,
              "dataType": "float",
              "length": 8,
              "origin": {
                "type": "Derived"
              }
            },
            {
              "OID": "ADLBC.AVAL._ALT",
              "mandatory": false,
              "name": "_ALT",
              "label": "Alanine Aminotransferase (U/L) change from previous visit, relative to normal range",
              "displayFormat": "4.1",
              "significantDigits": 1,
              "dataType": "float",
              "length": 8,
              "origin": {
                "type": "Derived"
              }
            },
            {
              "OID": "ADLBC.AVAL._AST",
              "mandatory": false,
              "name": "_AST",
              "label": "Aspartate Aminotransferase (U/L) change from previous visit, relative to normal range",
              "displayFormat": "4.1",
              "significantDigits": 1,
              "dataType": "float",
              "length": 8,
              "origin": {
                "type": "Derived"
              }
            },
            {
              "OID": "ADLBC.AVAL._BILI",
              "mandatory": false,
              "name": "_BILI",
              "label": "Bilirubin (umol/L) change from previous visit, relative to normal range",
              "displayFormat": "4.1",
              "significantDigits": 1,
              "dataType": "float",
              "length": 8,
              "origin": {
                "type": "Derived"
              }
            },
            {
              "OID": "ADLBC.AVAL._BUN",
              "mandatory": false,
              "name": "_BUN",
              "label": "Blood Urea Nitrogen (mmol/L) change from previous visit, relative to normal range",
              "displayFormat": "4.1",
              "significantDigits": 1,
              "dataType": "float",
              "length": 8,
              "origin": {
                "type": "Derived"
              }
            },
            {
              "OID": "ADLBC.AVAL._CA",
              "mandatory": false,
              "name": "_CA",
              "label": "Calcium (mmol/L) change from previous visit, relative to normal range",
              "displayFormat": "4.1",
              "significantDigits": 1,
              "dataType": "float",
              "length": 8,
              "origin": {
                "type": "Derived"
              }
            },
            {
              "OID": "ADLBC.AVAL._CHOL",
              "mandatory": false,
              "name": "_CHOL",
              "label": "Cholesterol (mmol/L) change from previous visit, relative to normal range",
              "displayFormat": "4.1",
              "significantDigits": 1,
              "dataType": "float",
              "length": 8,
              "origin": {
                "type": "Derived"
              }
            },
            {
              "OID": "ADLBC.AVAL._CK",
              "mandatory": false,
              "name": "_CK",
              "label": "Creatine Kinase (U/L) change from previous visit, relative to normal range",
              "displayFormat": "4.1",
              "significantDigits": 1,
              "dataType": "float",
              "length": 8,
              "origin": {
                "type": "Derived"
              }
            },
            {
              "OID": "ADLBC.AVAL._CL",
              "mandatory": false,
              "name": "_CL",
              "label": "Chloride (mmol/L) change from previous visit, relative to normal range",
              "displayFormat": "4.1",
              "significantDigits": 1,
              "dataType": "float",
              "length": 8,
              "origin": {
                "type": "Derived"
              }
            },
            {
              "OID": "ADLBC.AVAL._CREAT",
              "mandatory": false,
              "name": "_CREAT",
              "label": "Creatinine (umol/L) change from previous visit, relative to normal range",
              "displayFormat": "4.1",
              "significantDigits": 1,
              "dataType": "float",
              "length": 8,
              "origin": {
                "type": "Derived"
              }
            },
            {
              "OID": "ADLBC.AVAL._GGT",
              "mandatory": false,
              "name": "_GGT",
              "label": "Gamma Glutamyl Transferase (U/L) change from previous visit, relative to normal range",
              "displayFormat": "4.1",
              "significantDigits": 1,
              "dataType": "float",
              "length": 8,
              "origin": {
                "type": "Derived"
              }
            },
            {
              "OID": "ADLBC.AVAL._GLUC",
              "mandatory": false,
              "name": "_GLUC",
              "label": "Glucose (mmol/L) change from previous visit, relative to normal range",
              "displayFormat": "4.1",
              "significantDigits": 1,
              "dataType": "float",
              "length": 8,
              "origin": {
                "type": "Derived"
              }
            },
            {
              "OID": "ADLBC.AVAL._K",
              "mandatory": false,
              "name": "_K",
              "label": "Potassium (mmol/L) change from previous visit, relative to normal range",
              "displayFormat": "4.1",
              "significantDigits": 1,
              "dataType": "float",
              "length": 8,
              "origin": {
                "type": "Derived"
              }
            },
            {
              "OID": "ADLBC.AVAL._PHOS",
              "mandatory": false,
              "name": "_PHOS",
              "label": "Phosphate (mmol/L) change from previous visit, relative to normal range",
              "displayFormat": "4.1",
              "significantDigits": 1,
              "dataType": "float",
              "length": 8,
              "origin": {
                "type": "Derived"
              }
            },
            {
              "OID": "ADLBC.AVAL._PROT",
              "mandatory": false,
              "name": "_PROT",
              "label": "Protein (g/L) change from previous visit, relative to normal range",
              "displayFormat": "4.1",
              "significantDigits": 1,
              "dataType": "float",
              "length": 8,
              "origin": {
                "type": "Derived"
              }
            },
            {
              "OID": "ADLBC.AVAL._SODIUM",
              "mandatory": false,
              "name": "_SODIUM",
              "label": "Sodium (mmol/L) change from previous visit, relative to normal range",
              "displayFormat": "4.1",
              "significantDigits": 1,
              "dataType": "float",
              "length": 8,
              "origin": {
                "type": "Derived"
              }
            },
            {
              "OID": "ADLBC.AVAL._URATE",
              "mandatory": false,
              "name": "_URATE",
              "label": "Urate (umol/L) change from previous visit, relative to normal range",
              "displayFormat": "4.1",
              "significantDigits": 1,
              "dataType": "float",
              "length": 8,
              "origin": {
                "type": "Derived"
              }
            }
          ]
        },
        {
          "OID": "ValueList.ADLBC.BASE",
          "name": "ADLBC_BASE",
          "type": "ValueList",
          "items": [
            {
              "OID": "ADLBC.BASE.ALB",
              "mandatory": false,
              "name": "ALB",
              "label": "Albumin (g/L)",
              "dataType": "integer",
              "length": 8,
              "origin": {
                "type": "Derived"
              }
            },
            {
              "OID": "ADLBC.BASE.ALP",
              "mandatory": false,
              "name": "ALP",
              "label": "Alkaline Phosphatase (U/L)",
              "dataType": "integer",
              "length": 8,
              "origin": {
                "type": "Derived"
              }
            },
            {
              "OID": "ADLBC.BASE.ALT",
              "mandatory": false,
              "name": "ALT",
              "label": "Alanine Aminotransferase (U/L)",
              "dataType": "integer",
              "length": 8,
              "origin": {
                "type": "Derived"
              }
            },
            {
              "OID": "ADLBC.BASE.AST",
              "mandatory": false,
              "name": "AST",
              "label": "Aspartate Aminotransferase (U/L)",
              "dataType": "integer",
              "length": 8,
              "origin": {
                "type": "Derived"
              }
            },
            {
              "OID": "ADLBC.BASE.BILI",
              "mandatory": false,
              "name": "BILI",
              "label": "Bilirubin (umol/L)",
              "displayFormat": "6.2",
              "significantDigits": 2,
              "dataType": "float",
              "length": 8,
              "origin": {
                "type": "Derived"
              }
            },
            {
              "OID": "ADLBC.BASE.BUN",
              "mandatory": false,
              "name": "BUN",
              "label": "Blood Urea Nitrogen (mmol/L)",
              "displayFormat": "7.3",
              "significantDigits": 3,
              "dataType": "float",
              "length": 8,
              "origin": {
                "type": "Derived"
              }
            },
            {
              "OID": "ADLBC.BASE.CA",
              "mandatory": false,
              "name": "CA",
              "label": "Calcium (mmol/L)",
              "displayFormat": "8.5",
              "significantDigits": 5,
              "dataType": "float",
              "length": 8,
              "origin": {
                "type": "Derived"
              }
            },
            {
              "OID": "ADLBC.BASE.CHOL",
              "mandatory": false,
              "name": "CHOL",
              "label": "Cholesterol (mmol/L)",
              "displayFormat": "8.5",
              "significantDigits": 5,
              "dataType": "float",
              "length": 8,
              "origin": {
                "type": "Derived"
              }
            },
            {
              "OID": "ADLBC.BASE.CK",
              "mandatory": false,
              "name": "CK",
              "label": "Creatine Kinase (U/L)",
              "dataType": "integer",
              "length": 8,
              "origin": {
                "type": "Derived"
              }
            },
            {
              "OID": "ADLBC.BASE.CL",
              "mandatory": false,
              "name": "CL",
              "label": "Chloride (mmol/L)",
              "dataType": "integer",
              "length": 8,
              "origin": {
                "type": "Derived"
              }
            },
            {
              "OID": "ADLBC.BASE.CREAT",
              "mandatory": false,
              "name": "CREAT",
              "label": "Creatinine (umol/L)",
              "displayFormat": "6.2",
              "significantDigits": 2,
              "dataType": "float",
              "length": 8,
              "origin": {
                "type": "Derived"
              }
            },
            {
              "OID": "ADLBC.BASE.GGT",
              "mandatory": false,
              "name": "GGT",
              "label": "Gamma Glutamyl Transferase (U/L)",
              "dataType": "integer",
              "length": 8,
              "origin": {
                "type": "Derived"
              }
            },
            {
              "OID": "ADLBC.BASE.GLUC",
              "mandatory": false,
              "name": "GLUC",
              "label": "Glucose (mmol/L)",
              "displayFormat": "8.5",
              "significantDigits": 5,
              "dataType": "float",
              "length": 8,
              "origin": {
                "type": "Derived"
              }
            },
            {
              "OID": "ADLBC.BASE.K",
              "mandatory": false,
              "name": "K",
              "label": "Potassium (mmol/L)",
              "displayFormat": "4.1",
              "significantDigits": 1,
              "dataType": "float",
              "length": 8,
              "origin": {
                "type": "Derived"
              }
            },
            {
              "OID": "ADLBC.BASE.PHOS",
              "mandatory": false,
              "name": "PHOS",
              "label": "Phosphate (mmol/L)",
              "displayFormat": "7.5",
              "significantDigits": 5,
              "dataType": "float",
              "length": 8,
              "origin": {
                "type": "Derived"
              }
            },
            {
              "OID": "ADLBC.BASE.PROT",
              "mandatory": false,
              "name": "PROT",
              "label": "Protein (g/L)",
              "dataType": "integer",
              "length": 8,
              "origin": {
                "type": "Derived"
              }
            },
            {
              "OID": "ADLBC.BASE.SODIUM",
              "mandatory": false,
              "name": "SODIUM",
              "label": "Sodium (mmol/L)",
              "dataType": "integer",
              "length": 8,
              "origin": {
                "type": "Derived"
              }
            },
            {
              "OID": "ADLBC.BASE.URATE",
              "mandatory": false,
              "name": "URATE",
              "label": "Urate (umol/L)",
              "displayFormat": "7.3",
              "significantDigits": 3,
              "dataType": "float",
              "length": 8,
              "origin": {
                "type": "Derived"
              }
            },
            {
              "OID": "ADLBC.BASE._ALB",
              "mandatory": false,
              "name": "_ALB",
              "label": "Albumin (g/L) change from previous visit, relative to normal range",
              "dataType": "integer",
              "length": 8,
              "origin": {
                "type": "Derived"
              }
            },
            {
              "OID": "ADLBC.BASE._ALP",
              "mandatory": false,
              "name": "_ALP",
              "label": "Alkaline Phosphatase (U/L) change from previous visit, relative to normal range",
              "dataType": "integer",
              "length": 8,
              "origin": {
                "type": "Derived"
              }
            },
            {
              "OID": "ADLBC.BASE._ALT",
              "mandatory": false,
              "name": "_ALT",
              "label": "Alanine Aminotransferase (U/L) change from previous visit, relative to normal range",
              "dataType": "integer",
              "length": 8,
              "origin": {
                "type": "Derived"
              }
            },
            {
              "OID": "ADLBC.BASE._AST",
              "mandatory": false,
              "name": "_AST",
              "label": "Aspartate Aminotransferase (U/L) change from previous visit, relative to normal range",
              "dataType": "integer",
              "length": 8,
              "origin": {
                "type": "Derived"
              }
            },
            {
              "OID": "ADLBC.BASE._BILI",
              "mandatory": false,
              "name": "_BILI",
              "label": "Bilirubin (umol/L) change from previous visit, relative to normal range",
              "dataType": "integer",
              "length": 8,
              "origin": {
                "type": "Derived"
              }
            },
            {
              "OID": "ADLBC.BASE._BUN",
              "mandatory": false,
              "name": "_BUN",
              "label": "Blood Urea Nitrogen (mmol/L) change from previous visit, relative to normal range",
              "dataType": "integer",
              "length": 8,
              "origin": {
                "type": "Derived"
              }
            },
            {
              "OID": "ADLBC.BASE._CA",
              "mandatory": false,
              "name": "_CA",
              "label": "Calcium (mmol/L) change from previous visit, relative to normal range",
              "dataType": "integer",
              "length": 8,
              "origin": {
                "type": "Derived"
              }
            },
            {
              "OID": "ADLBC.BASE._CHOL",
              "mandatory": false,
              "name": "_CHOL",
              "label": "Cholesterol (mmol/L) change from previous visit, relative to normal range",
              "dataType": "integer",
              "length": 8,
              "origin": {
                "type": "Derived"
              }
            },
            {
              "OID": "ADLBC.BASE._CK",
              "mandatory": false,
              "name": "_CK",
              "label": "Creatine Kinase (U/L) change from previous visit, relative to normal range",
              "dataType": "integer",
              "length": 8,
              "origin": {
                "type": "Derived"
              }
            },
            {
              "OID": "ADLBC.BASE._CL",
              "mandatory": false,
              "name": "_CL",
              "label": "Chloride (mmol/L) change from previous visit, relative to normal range",
              "dataType": "integer",
              "length": 8,
              "origin": {
                "type": "Derived"
              }
            },
            {
              "OID": "ADLBC.BASE._CREAT",
              "mandatory": false,
              "name": "_CREAT",
              "label": "Creatinine (umol/L) change from previous visit, relative to normal range",
              "dataType": "integer",
              "length": 8,
              "origin": {
                "type": "Derived"
              }
            },
            {
              "OID": "ADLBC.BASE._GGT",
              "mandatory": false,
              "name": "_GGT",
              "label": "Gamma Glutamyl Transferase (U/L) change from previous visit, relative to normal range",
              "dataType": "integer",
              "length": 8,
              "origin": {
                "type": "Derived"
              }
            },
            {
              "OID": "ADLBC.BASE._GLUC",
              "mandatory": false,
              "name": "_GLUC",
              "label": "Glucose (mmol/L) change from previous visit, relative to normal range",
              "dataType": "integer",
              "length": 8,
              "origin": {
                "type": "Derived"
              }
            },
            {
              "OID": "ADLBC.BASE._K",
              "mandatory": false,
              "name": "_K",
              "label": "Potassium (mmol/L) change from previous visit, relative to normal range",
              "dataType": "integer",
              "length": 8,
              "origin": {
                "type": "Derived"
              }
            },
            {
              "OID": "ADLBC.BASE._PHOS",
              "mandatory": false,
              "name": "_PHOS",
              "label": "Phosphate (mmol/L) change from previous visit, relative to normal range",
              "dataType": "integer",
              "length": 8,
              "origin": {
                "type": "Derived"
              }
            },
            {
              "OID": "ADLBC.BASE._PROT",
              "mandatory": false,
              "name": "_PROT",
              "label": "Protein (g/L) change from previous visit, relative to normal range",
              "dataType": "integer",
              "length": 8,
              "origin": {
                "type": "Derived"
              }
            },
            {
              "OID": "ADLBC.BASE._SODIUM",
              "mandatory": false,
              "name": "_SODIUM",
              "label": "Sodium (mmol/L) change from previous visit, relative to normal range",
              "dataType": "integer",
              "length": 8,
              "origin": {
                "type": "Derived"
              }
            },
            {
              "OID": "ADLBC.BASE._URATE",
              "mandatory": false,
              "name": "_URATE",
              "label": "Urate (umol/L) change from previous visit, relative to normal range",
              "dataType": "integer",
              "length": 8,
              "origin": {
                "type": "Derived"
              }
            }
          ]
        },
        {
          "OID": "ValueList.ADLBC.BNRIND",
          "name": "ADLBC_BNRIND",
          "type": "ValueList",
          "items": [
            {
              "OID": "ADLBC.BNRIND.ALB",
              "mandatory": false,
              "name": "ALB",
              "label": "Albumin (g/L)",
              "dataType": "text",
              "length": 1,
              "codeList": "LNH",
              "origin": {
                "type": "Derived"
              }
            },
            {
              "OID": "ADLBC.BNRIND.ALP",
              "mandatory": false,
              "name": "ALP",
              "label": "Alkaline Phosphatase (U/L)",
              "dataType": "text",
              "length": 1,
              "codeList": "LNH",
              "origin": {
                "type": "Derived"
              }
            },
            {
              "OID": "ADLBC.BNRIND.ALT",
              "mandatory": false,
              "name": "ALT",
              "label": "Alanine Aminotransferase (U/L)",
              "dataType": "text",
              "length": 1,
              "codeList": "LNH",
              "origin": {
                "type": "Derived"
              }
            },
            {
              "OID": "ADLBC.BNRIND.AST",
              "mandatory": false,
              "name": "AST",
              "label": "Aspartate Aminotransferase (U/L)",
              "dataType": "text",
              "length": 1,
              "codeList": "LNH",
              "origin": {
                "type": "Derived"
              }
            },
            {
              "OID": "ADLBC.BNRIND.BILI",
              "mandatory": false,
              "name": "BILI",
              "label": "Bilirubin (umol/L)",
              "dataType": "text",
              "length": 1,
              "codeList": "LNH",
              "origin": {
                "type": "Derived"
              }
            },
            {
              "OID": "ADLBC.BNRIND.BUN",
              "mandatory": false,
              "name": "BUN",
              "label": "Blood Urea Nitrogen (mmol/L)",
              "dataType": "text",
              "length": 1,
              "codeList": "LNH",
              "origin": {
                "type": "Derived"
              }
            },
            {
              "OID": "ADLBC.BNRIND.CA",
              "mandatory": false,
              "name": "CA",
              "label": "Calcium (mmol/L)",
              "dataType": "text",
              "length": 1,
              "codeList": "LNH",
              "origin": {
                "type": "Derived"
              }
            },
            {
              "OID": "ADLBC.BNRIND.CHOL",
              "mandatory": false,
              "name": "CHOL",
              "label": "Cholesterol (mmol/L)",
              "dataType": "text",
              "length": 1,
              "codeList": "LNH",
              "origin": {
                "type": "Derived"
              }
            },
            {
              "OID": "ADLBC.BNRIND.CK",
              "mandatory": false,
              "name": "CK",
              "label": "Creatine Kinase (U/L)",
              "dataType": "text",
              "length": 1,
              "codeList": "LNH",
              "origin": {
                "type": "Derived"
              }
            },
            {
              "OID": "ADLBC.BNRIND.CL",
              "mandatory": false,
              "name": "CL",
              "label": "Chloride (mmol/L)",
              "dataType": "text",
              "length": 1,
              "codeList": "LNH",
              "origin": {
                "type": "Derived"
              }
            },
            {
              "OID": "ADLBC.BNRIND.CREAT",
              "mandatory": false,
              "name": "CREAT",
              "label": "Creatinine (umol/L)",
              "dataType": "text",
              "length": 1,
              "codeList": "LNH",
              "origin": {
                "type": "Derived"
              }
            },
            {
              "OID": "ADLBC.BNRIND.GGT",
              "mandatory": false,
              "name": "GGT",
              "label": "Gamma Glutamyl Transferase (U/L)",
              "dataType": "text",
              "length": 1,
              "codeList": "LNH",
              "origin": {
                "type": "Derived"
              }
            },
            {
              "OID": "ADLBC.BNRIND.GLUC",
              "mandatory": false,
              "name": "GLUC",
              "label": "Glucose (mmol/L)",
              "dataType": "text",
              "length": 1,
              "codeList": "LNH",
              "origin": {
                "type": "Derived"
              }
            },
            {
              "OID": "ADLBC.BNRIND.K",
              "mandatory": false,
              "name": "K",
              "label": "Potassium (mmol/L)",
              "dataType": "text",
              "length": 1,
              "codeList": "LNH",
              "origin": {
                "type": "Derived"
              }
            },
            {
              "OID": "ADLBC.BNRIND.PHOS",
              "mandatory": false,
              "name": "PHOS",
              "label": "Phosphate (mmol/L)",
              "dataType": "text",
              "length": 1,
              "codeList": "LNH",
              "origin": {
                "type": "Derived"
              }
            },
            {
              "OID": "ADLBC.BNRIND.PROT",
              "mandatory": false,
              "name": "PROT",
              "label": "Protein (g/L)",
              "dataType": "text",
              "length": 1,
              "codeList": "LNH",
              "origin": {
                "type": "Derived"
              }
            },
            {
              "OID": "ADLBC.BNRIND.SODIUM",
              "mandatory": false,
              "name": "SODIUM",
              "label": "Sodium (mmol/L)",
              "dataType": "text",
              "length": 1,
              "codeList": "LNH",
              "origin": {
                "type": "Derived"
              }
            },
            {
              "OID": "ADLBC.BNRIND.URATE",
              "mandatory": false,
              "name": "URATE",
              "label": "Urate (umol/L)",
              "dataType": "text",
              "length": 1,
              "codeList": "LNH",
              "origin": {
                "type": "Derived"
              }
            },
            {
              "OID": "ADLBC.BNRIND._ALB",
              "mandatory": false,
              "name": "_ALB",
              "label": "Albumin (g/L) change from previous visit, relative to normal range",
              "dataType": "text",
              "length": 1,
              "origin": {
                "type": "Derived"
              }
            },
            {
              "OID": "ADLBC.BNRIND._ALP",
              "mandatory": false,
              "name": "_ALP",
              "label": "Alkaline Phosphatase (U/L) change from previous visit, relative to normal range",
              "dataType": "text",
              "length": 1,
              "origin": {
                "type": "Derived"
              }
            },
            {
              "OID": "ADLBC.BNRIND._ALT",
              "mandatory": false,
              "name": "_ALT",
              "label": "Alanine Aminotransferase (U/L) change from previous visit, relative to normal range",
              "dataType": "text",
              "length": 1,
              "origin": {
                "type": "Derived"
              }
            },
            {
              "OID": "ADLBC.BNRIND._AST",
              "mandatory": false,
              "name": "_AST",
              "label": "Aspartate Aminotransferase (U/L) change from previous visit, relative to normal range",
              "dataType": "text",
              "length": 1,
              "origin": {
                "type": "Derived"
              }
            },
            {
              "OID": "ADLBC.BNRIND._BILI",
              "mandatory": false,
              "name": "_BILI",
              "label": "Bilirubin (umol/L) change from previous visit, relative to normal range",
              "dataType": "text",
              "length": 1,
              "origin": {
                "type": "Derived"
              }
            },
            {
              "OID": "ADLBC.BNRIND._BUN",
              "mandatory": false,
              "name": "_BUN",
              "label": "Blood Urea Nitrogen (mmol/L) change from previous visit, relative to normal range",
              "dataType": "text",
              "length": 1,
              "origin": {
                "type": "Derived"
              }
            },
            {
              "OID": "ADLBC.BNRIND._CA",
              "mandatory": false,
              "name": "_CA",
              "label": "Calcium (mmol/L) change from previous visit, relative to normal range",
              "dataType": "text",
              "length": 1,
              "origin": {
                "type": "Derived"
              }
            },
            {
              "OID": "ADLBC.BNRIND._CHOL",
              "mandatory": false,
              "name": "_CHOL",
              "label": "Cholesterol (mmol/L) change from previous visit, relative to normal range",
              "dataType": "text",
              "length": 1,
              "origin": {
                "type": "Derived"
              }
            },
            {
              "OID": "ADLBC.BNRIND._CK",
              "mandatory": false,
              "name": "_CK",
              "label": "Creatine Kinase (U/L) change from previous visit, relative to normal range",
              "dataType": "text",
              "length": 1,
              "origin": {
                "type": "Derived"
              }
            },
            {
              "OID": "ADLBC.BNRIND._CL",
              "mandatory": false,
              "name": "_CL",
              "label": "Chloride (mmol/L) change from previous visit, relative to normal range",
              "dataType": "text",
              "length": 1,
              "origin": {
                "type": "Derived"
              }
            },
            {
              "OID": "ADLBC.BNRIND._CREAT",
              "mandatory": false,
              "name": "_CREAT",
              "label": "Creatinine (umol/L) change from previous visit, relative to normal range",
              "dataType": "text",
              "length": 1,
              "origin": {
                "type": "Derived"
              }
            },
            {
              "OID": "ADLBC.BNRIND._GGT",
              "mandatory": false,
              "name": "_GGT",
              "label": "Gamma Glutamyl Transferase (U/L) change from previous visit, relative to normal range",
              "dataType": "text",
              "length": 1,
              "origin": {
                "type": "Derived"
              }
            },
            {
              "OID": "ADLBC.BNRIND._GLUC",
              "mandatory": false,
              "name": "_GLUC",
              "label": "Glucose (mmol/L) change from previous visit, relative to normal range",
              "dataType": "text",
              "length": 1,
              "origin": {
                "type": "Derived"
              }
            },
            {
              "OID": "ADLBC.BNRIND._K",
              "mandatory": false,
              "name": "_K",
              "label": "Potassium (mmol/L) change from previous visit, relative to normal range",
              "dataType": "text",
              "length": 1,
              "origin": {
                "type": "Derived"
              }
            },
            {
              "OID": "ADLBC.BNRIND._PHOS",
              "mandatory": false,
              "name": "_PHOS",
              "label": "Phosphate (mmol/L) change from previous visit, relative to normal range",
              "dataType": "text",
              "length": 1,
              "origin": {
                "type": "Derived"
              }
            },
            {
              "OID": "ADLBC.BNRIND._PROT",
              "mandatory": false,
              "name": "_PROT",
              "label": "Protein (g/L) change from previous visit, relative to normal range",
              "dataType": "text",
              "length": 1,
              "origin": {
                "type": "Derived"
              }
            },
            {
              "OID": "ADLBC.BNRIND._SODIUM",
              "mandatory": false,
              "name": "_SODIUM",
              "label": "Sodium (mmol/L) change from previous visit, relative to normal range",
              "dataType": "text",
              "length": 1,
              "origin": {
                "type": "Derived"
              }
            },
            {
              "OID": "ADLBC.BNRIND._URATE",
              "mandatory": false,
              "name": "_URATE",
              "label": "Urate (umol/L) change from previous visit, relative to normal range",
              "dataType": "text",
              "length": 1,
              "origin": {
                "type": "Derived"
              }
            }
          ]
        },
        {
          "OID": "ValueList.ADLBC.CHG",
          "name": "ADLBC_CHG",
          "type": "ValueList",
          "items": [
            {
              "OID": "ADLBC.CHG.ALB",
              "mandatory": false,
              "name": "ALB",
              "label": "Albumin (g/L)",
              "dataType": "integer",
              "length": 8,
              "origin": {
                "type": "Derived"
              }
            },
            {
              "OID": "ADLBC.CHG.ALP",
              "mandatory": false,
              "name": "ALP",
              "label": "Alkaline Phosphatase (U/L)",
              "dataType": "integer",
              "length": 8,
              "origin": {
                "type": "Derived"
              }
            },
            {
              "OID": "ADLBC.CHG.ALT",
              "mandatory": false,
              "name": "ALT",
              "label": "Alanine Aminotransferase (U/L)",
              "dataType": "integer",
              "length": 8,
              "origin": {
                "type": "Derived"
              }
            },
            {
              "OID": "ADLBC.CHG.AST",
              "mandatory": false,
              "name": "AST",
              "label": "Aspartate Aminotransferase (U/L)",
              "dataType": "integer",
              "length": 8,
              "origin": {
                "type": "Derived"
              }
            },
            {
              "OID": "ADLBC.CHG.BILI",
              "mandatory": false,
              "name": "BILI",
              "label": "Bilirubin (umol/L)",
              "displayFormat": "6.2",
              "significantDigits": 2,
              "dataType": "float",
              "length": 8,
              "origin": {
                "type": "Derived"
              }
            },
            {
              "OID": "ADLBC.CHG.BUN",
              "mandatory": false,
              "name": "BUN",
              "label": "Blood Urea Nitrogen (mmol/L)",
              "displayFormat": "7.3",
              "significantDigits": 3,
              "dataType": "float",
              "length": 8,
              "origin": {
                "type": "Derived"
              }
            },
            {
              "OID": "ADLBC.CHG.CA",
              "mandatory": false,
              "name": "CA",
              "label": "Calcium (mmol/L)",
              "displayFormat": "8.5",
              "significantDigits": 5,
              "dataType": "float",
              "length": 8,
              "origin": {
                "type": "Derived"
              }
            },
            {
              "OID": "ADLBC.CHG.CHOL",
              "mandatory": false,
              "name": "CHOL",
              "label": "Cholesterol (mmol/L)",
              "displayFormat": "8.5",
              "significantDigits": 5,
              "dataType": "float",
              "length": 8,
              "origin": {
                "type": "Derived"
              }
            },
            {
              "OID": "ADLBC.CHG.CK",
              "mandatory": false,
              "name": "CK",
              "label": "Creatine Kinase (U/L)",
              "dataType": "integer",
              "length": 8,
              "origin": {
                "type": "Derived"
              }
            },
            {
              "OID": "ADLBC.CHG.CL",
              "mandatory": false,
              "name": "CL",
              "label": "Chloride (mmol/L)",
              "dataType": "integer",
              "length": 8,
              "origin": {
                "type": "Derived"
              }
            },
            {
              "OID": "ADLBC.CHG.CREAT",
              "mandatory": false,
              "name": "CREAT",
              "label": "Creatinine (umol/L)",
              "displayFormat": "6.2",
              "significantDigits": 2,
              "dataType": "float",
              "length": 8,
              "origin": {
                "type": "Derived"
              }
            },
            {
              "OID": "ADLBC.CHG.GGT",
              "mandatory": false,
              "name": "GGT",
              "label": "Gamma Glutamyl Transferase (U/L)",
              "dataType": "integer",
              "length": 8,
              "origin": {
                "type": "Derived"
              }
            },
            {
              "OID": "ADLBC.CHG.GLUC",
              "mandatory": false,
              "name": "GLUC",
              "label": "Glucose (mmol/L)",
              "displayFormat": "8.5",
              "significantDigits": 5,
              "dataType": "float",
              "length": 8,
              "origin": {
                "type": "Derived"
              }
            },
            {
              "OID": "ADLBC.CHG.K",
              "mandatory": false,
              "name": "K",
              "label": "Potassium (mmol/L)",
              "displayFormat": "4.1",
              "significantDigits": 1,
              "dataType": "float",
              "length": 8,
              "origin": {
                "type": "Derived"
              }
            },
            {
              "OID": "ADLBC.CHG.PHOS",
              "mandatory": false,
              "name": "PHOS",
              "label": "Phosphate (mmol/L)",
              "displayFormat": "7.5",
              "significantDigits": 5,
              "dataType": "float",
              "length": 8,
              "origin": {
                "type": "Derived"
              }
            },
            {
              "OID": "ADLBC.CHG.PROT",
              "mandatory": false,
              "name": "PROT",
              "label": "Protein (g/L)",
              "dataType": "integer",
              "length": 8,
              "origin": {
                "type": "Derived"
              }
            },
            {
              "OID": "ADLBC.CHG.SODIUM",
              "mandatory": false,
              "name": "SODIUM",
              "label": "Sodium (mmol/L)",
              "dataType": "integer",
              "length": 8,
              "origin": {
                "type": "Derived"
              }
            },
            {
              "OID": "ADLBC.CHG.URATE",
              "mandatory": false,
              "name": "URATE",
              "label": "Urate (umol/L)",
              "displayFormat": "7.3",
              "significantDigits": 3,
              "dataType": "float",
              "length": 8,
              "origin": {
                "type": "Derived"
              }
            },
            {
              "OID": "ADLBC.CHG._ALB",
              "mandatory": false,
              "name": "_ALB",
              "label": "Albumin (g/L) change from previous visit, relative to normal range",
              "dataType": "integer",
              "length": 8,
              "origin": {
                "type": "Derived"
              }
            },
            {
              "OID": "ADLBC.CHG._ALP",
              "mandatory": false,
              "name": "_ALP",
              "label": "Alkaline Phosphatase (U/L) change from previous visit, relative to normal range",
              "dataType": "integer",
              "length": 8,
              "origin": {
                "type": "Derived"
              }
            },
            {
              "OID": "ADLBC.CHG._ALT",
              "mandatory": false,
              "name": "_ALT",
              "label": "Alanine Aminotransferase (U/L) change from previous visit, relative to normal range",
              "dataType": "integer",
              "length": 8,
              "origin": {
                "type": "Derived"
              }
            },
            {
              "OID": "ADLBC.CHG._AST",
              "mandatory": false,
              "name": "_AST",
              "label": "Aspartate Aminotransferase (U/L) change from previous visit, relative to normal range",
              "dataType": "integer",
              "length": 8,
              "origin": {
                "type": "Derived"
              }
            },
            {
              "OID": "ADLBC.CHG._BILI",
              "mandatory": false,
              "name": "_BILI",
              "label": "Bilirubin (umol/L) change from previous visit, relative to normal range",
              "dataType": "integer",
              "length": 8,
              "origin": {
                "type": "Derived"
              }
            },
            {
              "OID": "ADLBC.CHG._BUN",
              "mandatory": false,
              "name": "_BUN",
              "label": "Blood Urea Nitrogen (mmol/L) change from previous visit, relative to normal range",
              "dataType": "integer",
              "length": 8,
              "origin": {
                "type": "Derived"
              }
            },
            {
              "OID": "ADLBC.CHG._CA",
              "mandatory": false,
              "name": "_CA",
              "label": "Calcium (mmol/L) change from previous visit, relative to normal range",
              "dataType": "integer",
              "length": 8,
              "origin": {
                "type": "Derived"
              }
            },
            {
              "OID": "ADLBC.CHG._CHOL",
              "mandatory": false,
              "name": "_CHOL",
              "label": "Cholesterol (mmol/L) change from previous visit, relative to normal range",
              "dataType": "integer",
              "length": 8,
              "origin": {
                "type": "Derived"
              }
            },
            {
              "OID": "ADLBC.CHG._CK",
              "mandatory": false,
              "name": "_CK",
              "label": "Creatine Kinase (U/L) change from previous visit, relative to normal range",
              "dataType": "integer",
              "length": 8,
              "origin": {
                "type": "Derived"
              }
            },
            {
              "OID": "ADLBC.CHG._CL",
              "mandatory": false,
              "name": "_CL",
              "label": "Chloride (mmol/L) change from previous visit, relative to normal range",
              "dataType": "integer",
              "length": 8,
              "origin": {
                "type": "Derived"
              }
            },
            {
              "OID": "ADLBC.CHG._CREAT",
              "mandatory": false,
              "name": "_CREAT",
              "label": "Creatinine (umol/L) change from previous visit, relative to normal range",
              "dataType": "integer",
              "length": 8,
              "origin": {
                "type": "Derived"
              }
            },
            {
              "OID": "ADLBC.CHG._GGT",
              "mandatory": false,
              "name": "_GGT",
              "label": "Gamma Glutamyl Transferase (U/L) change from previous visit, relative to normal range",
              "dataType": "integer",
              "length": 8,
              "origin": {
                "type": "Derived"
              }
            },
            {
              "OID": "ADLBC.CHG._GLUC",
              "mandatory": false,
              "name": "_GLUC",
              "label": "Glucose (mmol/L) change from previous visit, relative to normal range",
              "dataType": "integer",
              "length": 8,
              "origin": {
                "type": "Derived"
              }
            },
            {
              "OID": "ADLBC.CHG._K",
              "mandatory": false,
              "name": "_K",
              "label": "Potassium (mmol/L) change from previous visit, relative to normal range",
              "dataType": "integer",
              "length": 8,
              "origin": {
                "type": "Derived"
              }
            },
            {
              "OID": "ADLBC.CHG._PHOS",
              "mandatory": false,
              "name": "_PHOS",
              "label": "Phosphate (mmol/L) change from previous visit, relative to normal range",
              "dataType": "integer",
              "length": 8,
              "origin": {
                "type": "Derived"
              }
            },
            {
              "OID": "ADLBC.CHG._PROT",
              "mandatory": false,
              "name": "_PROT",
              "label": "Protein (g/L) change from previous visit, relative to normal range",
              "dataType": "integer",
              "length": 8,
              "origin": {
                "type": "Derived"
              }
            },
            {
              "OID": "ADLBC.CHG._SODIUM",
              "mandatory": false,
              "name": "_SODIUM",
              "label": "Sodium (mmol/L) change from previous visit, relative to normal range",
              "dataType": "integer",
              "length": 8,
              "origin": {
                "type": "Derived"
              }
            },
            {
              "OID": "ADLBC.CHG._URATE",
              "mandatory": false,
              "name": "_URATE",
              "label": "Urate (umol/L) change from previous visit, relative to normal range",
              "dataType": "integer",
              "length": 8,
              "origin": {
                "type": "Derived"
              }
            }
          ]
        }
      ]
    },
    {
      "OID": "ADLBH",
      "purpose": "Analysis",
      "name": "ADLBH",
      "label": "Analysis Dataset Lab Hematology",
      "structure": "one record per subject per parameter per analysis visit",
      "isReferenceData": false,
      "items": [
        {
          "OID": "ADLBH.STUDYID",
          "mandatory": false,
          "name": "STUDYID",
          "label": "Study Identifier",
          "dataType": "text",
          "length": 12,
          "origin": {
            "type": "Derived"
          }
        },
        {
          "OID": "ADLBH.SUBJID",
          "mandatory": false,
          "name": "SUBJID",
          "label": "Subject Identifier for the Study",
          "dataType": "text",
          "length": 4,
          "origin": {
            "type": "Derived"
          }
        },
        {
          "OID": "ADLBH.USUBJID",
          "mandatory": false,
          "name": "USUBJID",
          "label": "Unique Subject Identifier",
          "dataType": "text",
          "length": 11,
          "origin": {
            "type": "Derived"
          }
        },
        {
          "OID": "ADLBH.TRTP",
          "mandatory": false,
          "name": "TRTP",
          "label": "Planned Treatment",
          "dataType": "text",
          "length": 20,
          "codeList": "ARM",
          "origin": {
            "type": "Derived"
          }
        },
        {
          "OID": "ADLBH.TRTPN",
          "mandatory": false,
          "name": "TRTPN",
          "label": "Planned Treatment (N)",
          "dataType": "integer",
          "length": 8,
          "codeList": "ARMN",
          "origin": {
            "type": "Derived"
          }
        },
        {
          "OID": "ADLBH.TRTA",
          "mandatory": false,
          "name": "TRTA",
          "label": "Actual Treatment",
          "dataType": "text",
          "length": 20,
          "codeList": "ARM",
          "origin": {
            "type": "Derived"
          }
        },
        {
          "OID": "ADLBH.TRTAN",
          "mandatory": false,
          "name": "TRTAN",
          "label": "Actual Treatment (N)",
          "dataType": "integer",
          "length": 8,
          "codeList": "ARMN",
          "origin": {
            "type": "Derived"
          }
        },
        {
          "OID": "ADLBH.TRTSDT",
          "mandatory": false,
          "name": "TRTSDT",
          "label": "Date of First Exposure to Treatment",
          "displayFormat": "DATE9.",
          "dataType": "integer",
          "length": 8,
          "origin": {
            "type": "Derived"
          }
        },
        {
          "OID": "ADLBH.TRTEDT",
          "mandatory": false,
          "name": "TRTEDT",
          "label": "Date of Last Exposure to Treatment",
          "displayFormat": "DATE9.",
          "dataType": "integer",
          "length": 8,
          "origin": {
            "type": "Derived"
          }
        },
        {
          "OID": "ADLBH.AGE",
          "mandatory": false,
          "name": "AGE",
          "label": "Age",
          "dataType": "integer",
          "length": 8,
          "origin": {
            "type": "Derived"
          }
        },
        {
          "OID": "ADLBH.AGEGR1",
          "mandatory": false,
          "name": "AGEGR1",
          "label": "Pooled Age Group 1",
          "dataType": "text",
          "length": 5,
          "codeList": "AGEGR1",
          "origin": {
            "type": "Derived"
          }
        },
        {
          "OID": "ADLBH.AGEGR1N",
          "mandatory": false,
          "name": "AGEGR1N",
          "label": "Pooled Age Group 1 (N)",
          "dataType": "integer",
          "length": 8,
          "codeList": "AGEGR1N",
          "origin": {
            "type": "Derived"
          }
        },
        {
          "OID": "ADLBH.RACE",
          "mandatory": false,
          "name": "RACE",
          "label": "Race",
          "dataType": "text",
          "length": 32,
          "codeList": "RACE",
          "origin": {
            "type": "Derived"
          }
        },
        {
          "OID": "ADLBH.RACEN",
          "mandatory": false,
          "name": "RACEN",
          "label": "Race (N)",
          "dataType": "integer",
          "length": 8,
          "codeList": "RACEN",
          "origin": {
            "type": "Derived"
          }
        },
        {
          "OID": "ADLBH.SEX",
          "mandatory": false,
          "name": "SEX",
          "label": "Sex",
          "dataType": "text",
          "length": 1,
          "codeList": "SEX",
          "origin": {
            "type": "Derived"
          }
        },
        {
          "OID": "ADLBH.COMP24FL",
          "mandatory": false,
          "name": "COMP24FL",
          "label": "Completers of Week 24 Population Flag",
          "dataType": "text",
          "length": 1,
          "codeList": "YN",
          "origin": {
            "type": "Derived"
          }
        },
        {
          "OID": "ADLBH.DSRAEFL",
          "mandatory": false,
          "name": "DSRAEFL",
          "label": "Discontinued due to AE?",
          "dataType": "text",
          "length": 1,
          "codeList": "YN",
          "origin": {
            "type": "Derived"
          }
        },
        {
          "OID": "ADLBH.SAFFL",
          "mandatory": false,
          "name": "SAFFL",
          "label": "Safety Population Flag",
          "dataType": "text",
          "length": 1,
          "codeList": "YN",
          "origin": {
            "type": "Derived"
          }
        },
        {
          "OID": "ADLBH.AVISIT",
          "mandatory": false,
          "name": "AVISIT",
          "label": "Analysis Visit",
          "dataType": "text",
          "length": 16,
          "codeList": "AVISIT",
          "origin": {
            "type": "Derived"
          }
        },
        {
          "OID": "ADLBH.AVISITN",
          "mandatory": false,
          "name": "AVISITN",
          "label": "Analysis Visit (N)",
          "dataType": "integer",
          "length": 8,
          "codeList": "AVISITN",
          "origin": {
            "type": "Derived"
          }
        },
        {
          "OID": "ADLBH.ADY",
          "mandatory": false,
          "name": "ADY",
          "label": "Analysis Relative Day",
          "dataType": "integer",
          "length": 8,
          "origin": {
            "type": "Derived"
          }
        },
        {
          "OID": "ADLBH.ADT",
          "mandatory": false,
          "name": "ADT",
          "label": "Analysis Date",
          "displayFormat": "DATE9.",
          "dataType": "integer",
          "length": 8,
          "origin": {
            "type": "Derived"
          }
        },
        {
          "OID": "ADLBH.VISIT",
          "mandatory": false,
          "name": "VISIT",
          "label": "Visit Name",
          "dataType": "text",
          "length": 19,
          "codeList": "VISIT",
          "origin": {
            "type": "Derived"
          }
        },
        {
          "OID": "ADLBH.VISITNUM",
          "mandatory": false,
          "name": "VISITNUM",
          "label": "Visit Number",
          "significantDigits": 1,
          "dataType": "float",
          "length": 8,
          "codeList": "VISITNUM",
          "origin": {
            "type": "Derived"
          }
        },
        {
          "OID": "ADLBH.PARAM",
          "mandatory": false,
          "name": "PARAM",
          "label": "Parameter",
          "dataType": "text",
          "length": 100,
          "codeList": "PARAM_ADLBH",
          "origin": {
            "type": "Derived"
          }
        },
        {
          "OID": "ADLBH.PARAMCD",
          "mandatory": false,
          "name": "PARAMCD",
          "label": "Parameter Code",
          "dataType": "text",
          "length": 8,
          "codeList": "PARAMCD_ADLBH",
          "origin": {
            "type": "Derived"
          }
        },
        {
          "OID": "ADLBH.PARAMN",
          "mandatory": false,
          "name": "PARAMN",
          "label": "Parameter (N)",
          "dataType": "integer",
          "length": 8,
          "codeList": "PARAMN_ADLBH",
          "origin": {
            "type": "Derived"
          }
        },
        {
          "OID": "ADLBH.PARCAT1",
          "mandatory": false,
          "name": "PARCAT1",
          "label": "Parameter Category 1",
          "dataType": "text",
          "length": 5,
          "codeList": "ADLBCAT",
          "origin": {
            "type": "Derived"
          }
        },
        {
          "OID": "ADLBH.AVAL",
          "mandatory": false,
          "name": "AVAL",
          "label": "Analysis Value",
          "significantDigits": 5,
          "dataType": "float",
          "length": 8,
          "origin": {
            "type": "Derived"
          }
        },
        {
          "OID": "ADLBH.BASE",
          "mandatory": false,
          "name": "BASE",
          "label": "Baseline Value",
          "significantDigits": 5,
          "dataType": "float",
          "length": 8,
          "origin": {
            "type": "Derived"
          }
        },
        {
          "OID": "ADLBH.CHG",
          "mandatory": false,
          "name": "CHG",
          "label": "Change from Baseline",
          "significantDigits": 5,
          "dataType": "float",
          "length": 8,
          "origin": {
            "type": "Derived"
          }
        },
        {
          "OID": "ADLBH.A1LO",
          "mandatory": false,
          "name": "A1LO",
          "label": "Analysis Range 1 Lower Limit",
          "significantDigits": 5,
          "dataType": "float",
          "length": 8,
          "origin": {
            "type": "Derived"
          }
        },
        {
          "OID": "ADLBH.A1HI",
          "mandatory": false,
          "name": "A1HI",
          "label": "Analysis Range 1 Upper Limit",
          "significantDigits": 5,
          "dataType": "float",
          "length": 8,
          "origin": {
            "type": "Derived"
          }
        },
        {
          "OID": "ADLBH.R2A1LO",
          "mandatory": false,
          "name": "R2A1LO",
          "label": "Ratio to Analysis Range 1 Lower Limit",
          "significantDigits": 1,
          "dataType": "float",
          "length": 8,
          "origin": {
            "type": "Derived"
          }
        },
        {
          "OID": "ADLBH.R2A1HI",
          "mandatory": false,
          "name": "R2A1HI",
          "label": "Ratio to Analysis Range 1 Upper Limit",
          "significantDigits": 1,
          "dataType": "float",
          "length": 8,
          "origin": {
            "type": "Derived"
          }
        },
        {
          "OID": "ADLBH.BR2A1LO",
          "mandatory": false,
          "name": "BR2A1LO",
          "label": "Base Ratio to Analysis Range 1 Lower Lim",
          "significantDigits": 1,
          "dataType": "float",
          "length": 8,
          "origin": {
            "type": "Derived"
          }
        },
        {
          "OID": "ADLBH.BR2A1HI",
          "mandatory": false,
          "name": "BR2A1HI",
          "label": "Base Ratio to Analysis Range 1 Upper Lim",
          "significantDigits": 1,
          "dataType": "float",
          "length": 8,
          "origin": {
            "type": "Derived"
          }
        },
        {
          "OID": "ADLBH.ANL01FL",
          "mandatory": false,
          "name": "ANL01FL",
          "label": "Analysis Record Flag 1",
          "dataType": "text",
          "length": 1,
          "codeList": "Y_BLANK",
          "origin": {
            "type": "Derived"
          }
        },
        {
          "OID": "ADLBH.ALBTRVAL",
          "mandatory": false,
          "name": "ALBTRVAL",
          "label": "Amount Threshold Range",
          "significantDigits": 3,
          "dataType": "float",
          "length": 8,
          "origin": {
            "type": "Derived"
          }
        },
        {
          "OID": "ADLBH.ANRIND",
          "mandatory": false,
          "name": "ANRIND",
          "label": "Analysis Reference Range Indicator",
          "dataType": "text",
          "length": 1,
          "codeList": "LNH",
          "origin": {
            "type": "Derived"
          }
        },
        {
          "OID": "ADLBH.BNRIND",
          "mandatory": false,
          "name": "BNRIND",
          "label": "Baseline Reference Range Indicator",
          "dataType": "text",
          "length": 1,
          "codeList": "LNH",
          "origin": {
            "type": "Derived"
          }
        },
        {
          "OID": "ADLBH.ABLFL",
          "mandatory": false,
          "name": "ABLFL",
          "label": "Baseline Record Flag",
          "dataType": "text",
          "length": 1,
          "codeList": "Y_BLANK",
          "origin": {
            "type": "Derived"
          }
        },
        {
          "OID": "ADLBH.AENTMTFL",
          "mandatory": false,
          "name": "AENTMTFL",
          "label": "Last value in treatment visit",
          "dataType": "text",
          "length": 1,
          "codeList": "Y_BLANK",
          "origin": {
            "type": "Derived"
          }
        },
        {
          "OID": "ADLBH.LBSEQ",
          "mandatory": false,
          "name": "LBSEQ",
          "label": "Sequence Number",
          "dataType": "integer",
          "length": 8,
          "origin": {
            "type": "Derived"
          }
        },
        {
          "OID": "ADLBH.LBNRIND",
          "mandatory": false,
          "name": "LBNRIND",
          "label": "Reference Range Indicator",
          "dataType": "text",
          "length": 8,
          "codeList": "LBNRIND",
          "origin": {
            "type": "Derived"
          }
        },
        {
          "OID": "ADLBH.LBSTRESN",
          "mandatory": false,
          "name": "LBSTRESN",
          "label": "Numeric Result/Finding in Standard Units",
          "significantDigits": 5,
          "dataType": "float",
          "length": 8,
          "origin": {
            "type": "Derived"
          }
        }
      ],
      "children": [
        {
          "OID": "ValueList.ADLBH.A1HI",
          "name": "ADLBH_A1HI",
          "type": "ValueList",
          "items": [
            {
              "OID": "ADLBH.A1HI.ANISO",
              "mandatory": false,
              "name": "ANISO",
              "label": "Anisocytes",
              "dataType": "integer",
              "length": 8,
              "origin": {
                "type": "Derived"
              }
            },
            {
              "OID": "ADLBH.A1HI.BASO",
              "mandatory": false,
              "name": "BASO",
              "label": "Basophils (GI/L)",
              "displayFormat": "4.2",
              "significantDigits": 2,
              "dataType": "float",
              "length": 8,
              "origin": {
                "type": "Derived"
              }
            },
            {
              "OID": "ADLBH.A1HI.EOS",
              "mandatory": false,
              "name": "EOS",
              "label": "Eosinophils (GI/L)",
              "displayFormat": "4.2",
              "significantDigits": 2,
              "dataType": "float",
              "length": 8,
              "origin": {
                "type": "Derived"
              }
            },
            {
              "OID": "ADLBH.A1HI.MCHC",
              "mandatory": false,
              "name": "MCHC",
              "label": "Ery. Mean Corpuscular HGB Concentration (mmol/L)",
              "displayFormat": "7.4",
              "significantDigits": 4,
              "dataType": "float",
              "length": 8,
              "origin": {
                "type": "Derived"
              }
            },
            {
              "OID": "ADLBH.A1HI.MCH",
              "mandatory": false,
              "name": "MCH",
              "label": "Ery. Mean Corpuscular Hemoglobin (fmol(Fe))",
              "displayFormat": "7.5",
              "significantDigits": 5,
              "dataType": "float",
              "length": 8,
              "origin": {
                "type": "Derived"
              }
            },
            {
              "OID": "ADLBH.A1HI.MCV",
              "mandatory": false,
              "name": "MCV",
              "label": "Ery. Mean Corpuscular Volume (fL)",
              "dataType": "integer",
              "length": 8,
              "origin": {
                "type": "Derived"
              }
            },
            {
              "OID": "ADLBH.A1HI.RBC",
              "mandatory": false,
              "name": "RBC",
              "label": "Erythrocytes (TI/L)",
              "displayFormat": "3.1",
              "significantDigits": 1,
              "dataType": "float",
              "length": 8,
              "origin": {
                "type": "Derived"
              }
            },
            {
              "OID": "ADLBH.A1HI.HCT",
              "mandatory": false,
              "name": "HCT",
              "label": "Hematocrit",
              "displayFormat": "4.2",
              "significantDigits": 2,
              "dataType": "float",
              "length": 8,
              "origin": {
                "type": "Derived"
              }
            },
            {
              "OID": "ADLBH.A1HI.HGB",
              "mandatory": false,
              "name": "HGB",
              "label": "Hemoglobin (mmol/L)",
              "displayFormat": "8.5",
              "significantDigits": 5,
              "dataType": "float",
              "length": 8,
              "origin": {
                "type": "Derived"
              }
            },
            {
              "OID": "ADLBH.A1HI.WBC",
              "mandatory": false,
              "name": "WBC",
              "label": "Leukocytes (GI/L)",
              "displayFormat": "5.2",
              "significantDigits": 2,
              "dataType": "float",
              "length": 8,
              "origin": {
                "type": "Derived"
              }
            },
            {
              "OID": "ADLBH.A1HI.LYM",
              "mandatory": false,
              "name": "LYM",
              "label": "Lymphocytes (GI/L)",
              "displayFormat": "4.2",
              "significantDigits": 2,
              "dataType": "float",
              "length": 8,
              "origin": {
                "type": "Derived"
              }
            },
            {
              "OID": "ADLBH.A1HI.MACROCY",
              "mandatory": false,
              "name": "MACROCY",
              "label": "Macrocytes",
              "dataType": "integer",
              "length": 8,
              "origin": {
                "type": "Derived"
              }
            },
            {
              "OID": "ADLBH.A1HI.MICROCY",
              "mandatory": false,
              "name": "MICROCY",
              "label": "Microcytes",
              "dataType": "integer",
              "length": 8,
              "origin": {
                "type": "Derived"
              }
            },
            {
              "OID": "ADLBH.A1HI.MONO",
              "mandatory": false,
              "name": "MONO",
              "label": "Monocytes (GI/L)",
              "displayFormat": "4.2",
              "significantDigits": 2,
              "dataType": "float",
              "length": 8,
              "origin": {
                "type": "Derived"
              }
            },
            {
              "OID": "ADLBH.A1HI.PLAT",
              "mandatory": false,
              "name": "PLAT",
              "label": "Platelet (GI/L)",
              "dataType": "integer",
              "length": 8,
              "origin": {
                "type": "Derived"
              }
            },
            {
              "OID": "ADLBH.A1HI.POIKILO",
              "mandatory": false,
              "name": "POIKILO",
              "label": "Poikilocytes",
              "dataType": "integer",
              "length": 8,
              "origin": {
                "type": "Derived"
              }
            },
            {
              "OID": "ADLBH.A1HI.POLYCHR",
              "mandatory": false,
              "name": "POLYCHR",
              "label": "Polychromasia",
              "dataType": "integer",
              "length": 8,
              "origin": {
                "type": "Derived"
              }
            },
            {
              "OID": "ADLBH.A1HI._ANISO",
              "mandatory": false,
              "name": "_ANISO",
              "label": "Anisocytes change from previous visit, relative to normal range",
              "dataType": "integer",
              "length": 8,
              "origin": {
                "type": "Derived"
              }
            },
            {
              "OID": "ADLBH.A1HI._BASO",
              "mandatory": false,
              "name": "_BASO",
              "label": "Basophils (GI/L) change from previous visit, relative to normal range",
              "dataType": "integer",
              "length": 8,
              "origin": {
                "type": "Derived"
              }
            },
            {
              "OID": "ADLBH.A1HI._EOS",
              "mandatory": false,
              "name": "_EOS",
              "label": "Eosinophils (GI/L) change from previous visit, relative to normal range",
              "dataType": "integer",
              "length": 8,
              "origin": {
                "type": "Derived"
              }
            },
            {
              "OID": "ADLBH.A1HI._MCHC",
              "mandatory": false,
              "name": "_MCHC",
              "label": "Ery. Mean Corpuscular HGB Concentration (mmol/L) change from previous visit, relative to normal rang",
              "dataType": "integer",
              "length": 8,
              "origin": {
                "type": "Derived"
              }
            },
            {
              "OID": "ADLBH.A1HI._MCH",
              "mandatory": false,
              "name": "_MCH",
              "label": "Ery. Mean Corpuscular Hemoglobin (fmol(Fe)) change from previous visit, relative to normal range",
              "dataType": "integer",
              "length": 8,
              "origin": {
                "type": "Derived"
              }
            },
            {
              "OID": "ADLBH.A1HI._MCV",
              "mandatory": false,
              "name": "_MCV",
              "label": "Ery. Mean Corpuscular Volume (fL) change from previous visit, relative to normal range",
              "dataType": "integer",
              "length": 8,
              "origin": {
                "type": "Derived"
              }
            },
            {
              "OID": "ADLBH.A1HI._RBC",
              "mandatory": false,
              "name": "_RBC",
              "label": "Erythrocytes (TI/L) change from previous visit, relative to normal range",
              "dataType": "integer",
              "length": 8,
              "origin": {
                "type": "Derived"
              }
            },
            {
              "OID": "ADLBH.A1HI._HCT",
              "mandatory": false,
              "name": "_HCT",
              "label": "Hematocrit change from previous visit, relative to normal range",
              "dataType": "integer",
              "length": 8,
              "origin": {
                "type": "Derived"
              }
            },
            {
              "OID": "ADLBH.A1HI._HGB",
              "mandatory": false,
              "name": "_HGB",
              "label": "Hemoglobin (mmol/L) change from previous visit, relative to normal range",
              "dataType": "integer",
              "length": 8,
              "origin": {
                "type": "Derived"
              }
            },
            {
              "OID": "ADLBH.A1HI._WBC",
              "mandatory": false,
              "name": "_WBC",
              "label": "Leukocytes (GI/L) change from previous visit, relative to normal range",
              "dataType": "integer",
              "length": 8,
              "origin": {
                "type": "Derived"
              }
            },
            {
              "OID": "ADLBH.A1HI._LYM",
              "mandatory": false,
              "name": "_LYM",
              "label": "Lymphocytes (GI/L) change from previous visit, relative to normal range",
              "dataType": "integer",
              "length": 8,
              "origin": {
                "type": "Derived"
              }
            },
            {
              "OID": "ADLBH.A1HI._MACROCY",
              "mandatory": false,
              "name": "_MACROCY",
              "label": "Macrocytes change from previous visit, relative to normal range",
              "dataType": "integer",
              "length": 8,
              "origin": {
                "type": "Derived"
              }
            },
            {
              "OID": "ADLBH.A1HI._MICROCY",
              "mandatory": false,
              "name": "_MICROCY",
              "label": "Microcytes change from previous visit, relative to normal range",
              "dataType": "integer",
              "length": 8,
              "origin": {
                "type": "Derived"
              }
            },
            {
              "OID": "ADLBH.A1HI._MONO",
              "mandatory": false,
              "name": "_MONO",
              "label": "Monocytes (GI/L) change from previous visit, relative to normal range",
              "dataType": "integer",
              "length": 8,
              "origin": {
                "type": "Derived"
              }
            },
            {
              "OID": "ADLBH.A1HI._PLAT",
              "mandatory": false,
              "name": "_PLAT",
              "label": "Platelet (GI/L) change from previous visit, relative to normal range",
              "dataType": "integer",
              "length": 8,
              "origin": {
                "type": "Derived"
              }
            },
            {
              "OID": "ADLBH.A1HI._POIKILO",
              "mandatory": false,
              "name": "_POIKILO",
              "label": "Poikilocytes change from previous visit, relative to normal range",
              "dataType": "integer",
              "length": 8,
              "origin": {
                "type": "Derived"
              }
            },
            {
              "OID": "ADLBH.A1HI._POLYCHR",
              "mandatory": false,
              "name": "_POLYCHR",
              "label": "Polychromasia change from previous visit, relative to normal range",
              "dataType": "integer",
              "length": 8,
              "origin": {
                "type": "Derived"
              }
            }
          ]
        },
        {
          "OID": "ValueList.ADLBH.A1LO",
          "name": "ADLBH_A1LO",
          "type": "ValueList",
          "items": [
            {
              "OID": "ADLBH.A1LO.ANISO",
              "mandatory": false,
              "name": "ANISO",
              "label": "Anisocytes",
              "dataType": "integer",
              "length": 8,
              "origin": {
                "type": "Derived"
              }
            },
            {
              "OID": "ADLBH.A1LO.BASO",
              "mandatory": false,
              "name": "BASO",
              "label": "Basophils (GI/L)",
              "displayFormat": "4.2",
              "significantDigits": 2,
              "dataType": "float",
              "length": 8,
              "origin": {
                "type": "Derived"
              }
            },
            {
              "OID": "ADLBH.A1LO.EOS",
              "mandatory": false,
              "name": "EOS",
              "label": "Eosinophils (GI/L)",
              "displayFormat": "4.2",
              "significantDigits": 2,
              "dataType": "float",
              "length": 8,
              "origin": {
                "type": "Derived"
              }
            },
            {
              "OID": "ADLBH.A1LO.MCHC",
              "mandatory": false,
              "name": "MCHC",
              "label": "Ery. Mean Corpuscular HGB Concentration (mmol/L)",
              "displayFormat": "7.4",
              "significantDigits": 4,
              "dataType": "float",
              "length": 8,
              "origin": {
                "type": "Derived"
              }
            },
            {
              "OID": "ADLBH.A1LO.MCH",
              "mandatory": false,
              "name": "MCH",
              "label": "Ery. Mean Corpuscular Hemoglobin (fmol(Fe))",
              "displayFormat": "7.5",
              "significantDigits": 5,
              "dataType": "float",
              "length": 8,
              "origin": {
                "type": "Derived"
              }
            },
            {
              "OID": "ADLBH.A1LO.MCV",
              "mandatory": false,
              "name": "MCV",
              "label": "Ery. Mean Corpuscular Volume (fL)",
              "dataType": "integer",
              "length": 8,
              "origin": {
                "type": "Derived"
              }
            },
            {
              "OID": "ADLBH.A1LO.RBC",
              "mandatory": false,
              "name": "RBC",
              "label": "Erythrocytes (TI/L)",
              "displayFormat": "3.1",
              "significantDigits": 1,
              "dataType": "float",
              "length": 8,
              "origin": {
                "type": "Derived"
              }
            },
            {
              "OID": "ADLBH.A1LO.HCT",
              "mandatory": false,
              "name": "HCT",
              "label": "Hematocrit",
              "displayFormat": "4.2",
              "significantDigits": 2,
              "dataType": "float",
              "length": 8,
              "origin": {
                "type": "Derived"
              }
            },
            {
              "OID": "ADLBH.A1LO.HGB",
              "mandatory": false,
              "name": "HGB",
              "label": "Hemoglobin (mmol/L)",
              "displayFormat": "8.5",
              "significantDigits": 5,
              "dataType": "float",
              "length": 8,
              "origin": {
                "type": "Derived"
              }
            },
            {
              "OID": "ADLBH.A1LO.WBC",
              "mandatory": false,
              "name": "WBC",
              "label": "Leukocytes (GI/L)",
              "displayFormat": "5.2",
              "significantDigits": 2,
              "dataType": "float",
              "length": 8,
              "origin": {
                "type": "Derived"
              }
            },
            {
              "OID": "ADLBH.A1LO.LYM",
              "mandatory": false,
              "name": "LYM",
              "label": "Lymphocytes (GI/L)",
              "displayFormat": "4.2",
              "significantDigits": 2,
              "dataType": "float",
              "length": 8,
              "origin": {
                "type": "Derived"
              }
            },
            {
              "OID": "ADLBH.A1LO.MACROCY",
              "mandatory": false,
              "name": "MACROCY",
              "label": "Macrocytes",
              "dataType": "integer",
              "length": 8,
              "origin": {
                "type": "Derived"
              }
            },
            {
              "OID": "ADLBH.A1LO.MICROCY",
              "mandatory": false,
              "name": "MICROCY",
              "label": "Microcytes",
              "dataType": "integer",
              "length": 8,
              "origin": {
                "type": "Derived"
              }
            },
            {
