{
  "OID": "MDV.CDISC01_1.1.SDTMIG.3.1.2.SDTM.1.2_X",
  "name": "Study CDISC01_1, Data Definitions V-1",
  "description": "Data Definitions for CDISC01-01 SDTM datasets. This metadata version contains only a subset of datasets compared to the prior version. The metadata provided is only intended to illustrate most Define-XML 2.1 new features and not meant to serve as a comprehensive example of all metadata expected to be defined to fully describe an SDTM dataset package.   Notes:   1) Supplemental documents released in prior Define-XML versions were not updated to reflect changes to the metadata.    2) This example is prepared for a context other than submission; however, still using the approach of non-standard variables prepared as supplemental qualifiers datasets.",
  "fileOID": "www.cdisc.org/StudyCDISC01_1/1/Define-XML_2.1.0",
  "creationDateTime": "2024-11-21T16:27:00",
  "odmVersion": "1.3.2",
  "fileType": "Snapshot",
  "originator": "CDISC Data Exchange Standards Team",
  "sourceSystem": "M.Hungria-System",
  "sourceSystemVersion": "2.1-A1",
  "context": "Other",
  "defineVersion": "2.1.9",
  "studyOID": "STDY.www.cdisc.org.CDISC01_1",
  "studyName": "CDISC01_1",
  "studyDescription": "CDISC Test Study Modified to illustrate Define-XML 2.1 features",
  "protocolName": "CDISC01-1",
  "itemGroups": [
    {
      "OID": "IG.TS",
      "purpose": "Tabulation",
      "name": "TS",
      "description": "Trial Summary",
      "domain": "TS",
      "structure": "One record per trial summary parameter value",
      "isReferenceData": true,
      "items": [
        {
          "OID": "IT.STUDYID",
          "mandatory": true,
          "name": "STUDYID",
          "description": "Study Identifier",
          "dataType": "text",
          "length": 7,
          "origin": {
            "type": "Protocol",
            "source": "Sponsor"
          }
        },
        {
          "OID": "IT.TS.DOMAIN",
          "mandatory": true,
          "name": "DOMAIN",
          "description": "Domain Abbreviation",
          "dataType": "text",
          "length": 2,
          "codeList": "CL.TS.DOMAIN",
          "origin": {
            "type": "Assigned",
            "source": "Sponsor"
          }
        },
        {
          "OID": "IT.TS.TSSEQ",
          "mandatory": true,
          "name": "TSSEQ",
          "description": "Sequence Number",
          "dataType": "integer",
          "length": 1,
          "method": "MT.TSSEQ",
          "origin": {
            "type": "Derived",
            "source": "Sponsor"
          }
        },
        {
          "OID": "IT.TS.TSPARMCD",
          "mandatory": true,
          "name": "TSPARMCD",
          "description": "Trial Summary Parameter Short Name",
          "dataType": "text",
          "length": 8,
          "codeList": "CL.TSPARMCD",
          "origin": {
            "type": "Assigned",
            "source": "Sponsor"
          }
        },
        {
          "OID": "IT.TS.TSPARM",
          "mandatory": true,
          "name": "TSPARM",
          "description": "Trial Summary Parameter",
          "dataType": "text",
          "length": 36,
          "codeList": "CL.TSPARM",
          "origin": {
            "type": "Assigned",
            "source": "Sponsor"
          }
        },
        {
          "OID": "IT.TS.TSVAL",
          "mandatory": true,
          "name": "TSVAL",
          "description": "Parameter Value",
          "dataType": "text",
          "length": 100,
          "origin": {
            "type": "Protocol",
            "source": "Sponsor"
          }
        }
      ],
      "keySequence": [
        "IT.STUDYID",
        "IT.TS.TSPARMCD",
        "IT.TS.TSSEQ"
      ],
      "slices": [
        {
          "OID": "VL.TS.TSVAL",
          "name": "VL_TS_TSVAL",
          "type": "ValueList",
          "items": [
            {
              "OID": "IT.TS.TSVAL.AGEMAX",
              "mandatory": false,
              "name": "AGEMAX",
              "description": "Planned Maximum Age of Subjects",
              "dataType": "integer",
              "length": 2,
              "applicableWhen": [
                "WC.TS.TSPARMCD.AGEMAX"
              ],
              "origin": {
                "type": "Protocol",
                "source": "Sponsor"
              }
            },
            {
              "OID": "IT.TS.TSVAL.AGEMIN",
              "mandatory": false,
              "name": "AGEMIN",
              "description": "Planned Minimum Age of Subjects",
              "dataType": "integer",
              "length": 2,
              "applicableWhen": [
                "WC.TS.TSPARMCD.AGEMIN"
              ],
              "origin": {
                "type": "Protocol",
                "source": "Sponsor"
              }
            },
            {
              "OID": "IT.TS.TSVAL.AGEU",
              "mandatory": false,
              "name": "AGEU",
              "description": "Age Unit",
              "dataType": "text",
              "length": 5,
              "codeList": "CL.AGEU",
              "applicableWhen": [
                "WC.TS.TSPARMCD.AGEU"
              ],
              "origin": {
                "type": "Protocol",
                "source": "Sponsor"
              }
            },
            {
              "OID": "IT.TS.TSVAL.DOSE",
              "mandatory": false,
              "name": "DOSE",
              "description": "Dose per Administration",
              "dataType": "integer",
              "length": 2,
              "applicableWhen": [
                "WC.TS.TSPARMCD.DOSE"
              ],
              "origin": {
                "type": "Protocol",
                "source": "Sponsor"
              }
            },
            {
              "OID": "IT.TS.TSVAL.FCNTRY",
              "mandatory": false,
              "name": "FCNTRY",
              "description": "Planned Country of Investigational Sites",
              "dataType": "text",
              "length": 3,
              "codeList": "CL.COUNTRY.STUDY",
              "applicableWhen": [
                "WC.TS.TSPARMCD.FCNTRY"
              ],
              "origin": {
                "type": "Protocol",
                "source": "Sponsor"
              }
            },
            {
              "OID": "IT.TS.TSVAL.PLANSUB",
              "mandatory": false,
              "name": "PLANSUB",
              "description": "Planned Number of Subjects",
              "dataType": "integer",
              "length": 2,
              "applicableWhen": [
                "WC.TS.TSPARMCD.PLANSUB"
              ],
              "origin": {
                "type": "Protocol",
                "source": "Sponsor"
              }
            }
          ]
        }
      ]
    },
    {
      "OID": "IG.DI",
      "purpose": "Tabulation",
      "name": "DI",
      "description": "Device Identifiers",
      "domain": "DI",
      "structure": "One record per device identifier per device",
      "isReferenceData": false,
      "items": [
        {
          "OID": "IT.STUDYID",
          "mandatory": true,
          "name": "STUDYID",
          "description": "Study Identifier",
          "dataType": "text",
          "length": 7,
          "origin": {
            "type": "Protocol",
            "source": "Sponsor"
          }
        },
        {
          "OID": "IT.DOMAIN",
          "mandatory": true,
          "name": "DOMAIN",
          "description": "Domain Abbreviation",
          "dataType": "text",
          "length": 2,
          "codeList": "CL.DI.DOMAIN",
          "origin": {
            "type": "Assigned",
            "source": "Sponsor"
          }
        },
        {
          "OID": "IT.SPDEVID",
          "mandatory": true,
          "name": "SPDEVID",
          "description": "Sponsor Device Identifier",
          "dataType": "text",
          "length": 30,
          "origin": {
            "type": "Collected",
            "source": "Vendor"
          }
        },
        {
          "OID": "IT.DISEQ",
          "mandatory": false,
          "name": "DISEQ",
          "description": "Sequence Number",
          "dataType": "integer",
          "length": 3,
          "method": "MT.SEQ",
          "origin": {
            "type": "Derived",
            "source": "Sponsor"
          }
        },
        {
          "OID": "IT.DIPARMCD",
          "mandatory": true,
          "name": "DIPARMCD",
          "description": "Device Identifier Element Short Name",
          "dataType": "text",
          "length": 20,
          "origin": {
            "type": "Assigned",
            "source": "Vendor"
          }
        },
        {
          "OID": "IT.DIPARM",
          "mandatory": true,
          "name": "DIPARM",
          "description": "Device Identifier  Element Name",
          "dataType": "text",
          "length": 100,
          "origin": {
            "type": "Assigned",
            "source": "Vendor"
          }
        },
        {
          "OID": "IT.DIVAL",
          "mandatory": true,
          "name": "DIVAL",
          "description": "Device Identifier Element Value",
          "dataType": "text",
          "length": 200,
          "origin": {
            "type": "Collected",
            "source": "Vendor"
          }
        }
      ],
      "keySequence": [
        "IT.STUDYID",
        "IT.SPDEVID",
        "IT.DIPARMCD"
      ]
    },
    {
      "OID": "IG.DM",
      "purpose": "Tabulation",
      "name": "DM",
      "description": "Demographics",
      "domain": "DM",
      "structure": "One record per subject",
      "isReferenceData": false,
      "items": [
        {
          "OID": "IT.STUDYID",
          "mandatory": true,
          "name": "STUDYID",
          "description": "Study Identifier",
          "dataType": "text",
          "length": 7,
          "origin": {
            "type": "Protocol",
            "source": "Sponsor"
          }
        },
        {
          "OID": "IT.DM.DOMAIN",
          "mandatory": true,
          "name": "DOMAIN",
          "description": "Domain Abbreviation",
          "dataType": "text",
          "length": 2,
          "codeList": "CL.DM.DOMAIN",
          "origin": {
            "type": "Assigned",
            "source": "Sponsor"
          }
        },
        {
          "OID": "IT.USUBJID",
          "mandatory": true,
          "name": "USUBJID",
          "description": "Unique Subject Identifier",
          "dataType": "text",
          "length": 14,
          "method": "MT.USUBJID",
          "origin": {
            "type": "Derived",
            "source": "Sponsor"
          }
        },
        {
          "OID": "IT.DM.SUBJID",
          "mandatory": true,
          "name": "SUBJID",
          "description": "Subject Identifier for the Study",
          "dataType": "text",
          "length": 6,
          "origin": {
            "type": "Collected",
            "source": "Investigator",
            "documents": [
              {
                "OID": "LF.acrf",
                "leafID": "LF.acrf"
              }
            ]
          }
        },
        {
          "OID": "IT.DM.RFSTDTC",
          "mandatory": false,
          "name": "RFSTDTC",
          "description": "Subject Reference Start Date/Time",
          "dataType": "date",
          "method": "MT.RFSTDTC",
          "origin": {
            "type": "Derived",
            "source": "Sponsor"
          }
        },
        {
          "OID": "IT.DM.RFENDTC",
          "mandatory": false,
          "name": "RFENDTC",
          "description": "Subject Reference End Date/Time",
          "dataType": "date",
          "method": "MT.RFENDTC",
          "origin": {
            "type": "Derived",
            "source": "Sponsor"
          }
        },
        {
          "OID": "IT.DM.SITEID",
          "mandatory": true,
          "name": "SITEID",
          "description": "Study Site Identifier",
          "dataType": "text",
          "length": 3,
          "origin": {
            "type": "Collected",
            "source": "Investigator",
            "documents": [
              {
                "OID": "LF.acrf",
                "leafID": "LF.acrf"
              }
            ]
          }
        },
        {
          "OID": "IT.DM.BRTHDTC",
          "mandatory": false,
          "name": "BRTHDTC",
          "description": "Date/Time of Birth",
          "dataType": "date",
          "origin": {
            "type": "Collected",
            "source": "Investigator",
            "documents": [
              {
                "OID": "LF.acrf",
                "leafID": "LF.acrf"
              }
            ]
          }
        },
        {
          "OID": "IT.DM.AGE",
          "mandatory": true,
          "name": "AGE",
          "description": "Age",
          "dataType": "integer",
          "length": 2,
          "method": "MT.AGE",
          "origin": {
            "type": "Derived",
            "source": "Sponsor"
          }
        },
        {
          "OID": "IT.DM.AGEU",
          "mandatory": false,
          "name": "AGEU",
          "description": "Age Units",
          "dataType": "text",
          "length": 5,
          "origin": {
            "type": "Assigned",
            "source": "Sponsor"
          }
        },
        {
          "OID": "IT.DM.SEX",
          "mandatory": true,
          "name": "SEX",
          "description": "Sex",
          "dataType": "text",
          "length": 16,
          "codeList": "CL.SEX",
          "origin": {
            "type": "Collected",
            "source": "Investigator",
            "documents": [
              {
                "OID": "LF.acrf",
                "leafID": "LF.acrf"
              }
            ]
          }
        },
        {
          "OID": "IT.DM.RACE",
          "mandatory": false,
          "name": "RACE",
          "description": "Race",
          "dataType": "text",
          "length": 41,
          "codeList": "CL.RACE",
          "method": "MT.RACE",
          "origin": {
            "type": "Collected",
            "source": "Investigator",
            "documents": [
              {
                "OID": "LF.acrf",
                "leafID": "LF.acrf"
              }
            ]
          }
        },
        {
          "OID": "IT.DM.ETHNIC",
          "mandatory": true,
          "name": "ETHNIC",
          "description": "Ethnicity",
          "dataType": "text",
          "length": 22,
          "codeList": "CL.ETHNIC",
          "origin": {
            "type": "Collected",
            "source": "Investigator",
            "documents": [
              {
                "OID": "LF.acrf",
                "leafID": "LF.acrf"
              }
            ]
          }
        },
        {
          "OID": "IT.DM.ARMCD",
          "mandatory": true,
          "name": "ARMCD",
          "description": "Planned Arm Code",
          "dataType": "text",
          "length": 8,
          "codeList": "CL.ARMCD",
          "origin": {
            "type": "Assigned",
            "source": "Sponsor"
          }
        },
        {
          "OID": "IT.DM.ARM",
          "mandatory": true,
          "name": "ARM",
          "description": "Description of Planned Arm",
          "dataType": "text",
          "length": 20,
          "codeList": "CL.ARM",
          "origin": {
            "type": "Assigned",
            "source": "Sponsor"
          }
        },
        {
          "OID": "IT.DM.COUNTRY",
          "mandatory": true,
          "name": "COUNTRY",
          "description": "Country",
          "dataType": "text",
          "length": 3,
          "codeList": "CL.ISO.COUNTRY",
          "origin": {
            "type": "Assigned",
            "source": "Sponsor"
          }
        }
      ],
      "keySequence": [
        "IT.STUDYID",
        "IT.USUBJID"
      ]
    },
    {
      "OID": "IG.EC",
      "purpose": "Tabulation",
      "name": "EC",
      "description": "Exposure as Collected",
      "domain": "EC",
      "structure": "One record per constant dosing interval per subject",
      "isReferenceData": false,
      "items": [
        {
          "OID": "IT.STUDYID",
          "mandatory": true,
          "name": "STUDYID",
          "description": "Study Identifier",
          "dataType": "text",
          "length": 7,
          "origin": {
            "type": "Protocol",
            "source": "Sponsor"
          }
        },
        {
          "OID": "IT.EC.DOMAIN",
          "mandatory": true,
          "name": "DOMAIN",
          "description": "Domain Abbreviation",
          "dataType": "text",
          "length": 2,
          "codeList": "CL.EC.DOMAIN",
          "origin": {
            "type": "Assigned",
            "source": "Sponsor"
          }
        },
        {
          "OID": "IT.USUBJID",
          "mandatory": true,
          "name": "USUBJID",
          "description": "Unique Subject Identifier",
          "dataType": "text",
          "length": 14,
          "method": "MT.USUBJID",
          "origin": {
            "type": "Derived",
            "source": "Sponsor"
          }
        },
        {
          "OID": "IT.EC.EXSEQ",
          "mandatory": true,
          "name": "ECSEQ",
          "description": "Sequence Number",
          "dataType": "integer",
          "length": 1,
          "method": "MT.SEQ",
          "origin": {
            "type": "Derived",
            "source": "Sponsor"
          }
        },
        {
          "OID": "IT.EC.EXTRT",
          "mandatory": true,
          "name": "ECTRT",
          "description": "Name of Actual Treatment",
          "dataType": "text",
          "length": 20,
          "codeList": "CL.EXTRT",
          "method": "MT.EXTRT",
          "origin": {
            "type": "Derived",
            "source": "Sponsor"
          }
        },
        {
          "OID": "IT.EC.EXDOSE",
          "mandatory": false,
          "name": "ECDOSE",
          "description": "Dose per Administration",
          "dataType": "integer",
          "length": 2,
          "origin": {
            "type": "Derived",
            "source": "Sponsor"
          }
        },
        {
          "OID": "IT.EC.EXDOSU",
          "mandatory": false,
          "name": "ECDOSU",
          "description": "Dose Units",
          "dataType": "text",
          "length": 2,
          "origin": {
            "type": "Derived",
            "source": "Sponsor"
          }
        },
        {
          "OID": "IT.EC.EXDOSFRM",
          "mandatory": false,
          "name": "ECDOSFRM",
          "description": "Dose Form",
          "dataType": "text",
          "length": 7,
          "codeList": "CL.FRM",
          "origin": {
            "type": "Collected",
            "source": "Investigator",
            "documents": [
              {
                "OID": "LF.acrf",
                "leafID": "LF.acrf"
              }
            ]
          }
        },
        {
          "OID": "IT.EC.EXSTDTC",
          "mandatory": false,
          "name": "ECSTDTC",
          "description": "Start Date/Time of Treatment",
          "dataType": "date",
          "origin": {
            "type": "Collected",
            "source": "Investigator",
            "documents": [
              {
                "OID": "LF.acrf",
                "leafID": "LF.acrf"
              }
            ]
          }
        },
        {
          "OID": "IT.EC.EXENDTC",
          "mandatory": false,
          "name": "ECENDTC",
          "description": "End Date/Time of Treatment",
          "dataType": "date",
          "origin": {
            "type": "Collected",
            "source": "Investigator",
            "documents": [
              {
                "OID": "LF.acrf",
                "leafID": "LF.acrf"
              }
            ]
          }
        },
        {
          "OID": "IT.EC.EXSTDY",
          "mandatory": false,
          "name": "ECSTDY",
          "description": "Study Day of Start of Treatment",
          "dataType": "integer",
          "length": 2,
          "method": "MT.EXSTDY",
          "origin": {
            "type": "Derived",
            "source": "Sponsor"
          }
        },
        {
          "OID": "IT.EC.EXENDY",
          "mandatory": false,
          "name": "ECENDY",
          "description": "Study Day of End of Treatment",
          "dataType": "integer",
          "length": 2,
          "method": "MT.ECENDY",
          "origin": {
            "type": "Derived",
            "source": "Sponsor"
          }
        }
      ],
      "keySequence": [
        "IT.STUDYID",
        "IT.USUBJID",
        "IT.EC.EXSTDTC",
        "IT.EC.EXENDTC",
        "IT.EC.EXTRT",
        "IT.EC.EXDOSE"
      ]
    },
    {
      "OID": "IG.EX",
      "purpose": "Tabulation",
      "name": "EX",
      "description": "Exposure",
      "domain": "EX",
      "structure": "One record per constant dosing interval per subject",
      "isReferenceData": false,
      "items": [
        {
          "OID": "IT.STUDYID",
          "mandatory": true,
          "name": "STUDYID",
          "description": "Study Identifier",
          "dataType": "text",
          "length": 7,
          "origin": {
            "type": "Protocol",
            "source": "Sponsor"
          }
        },
        {
          "OID": "IT.EX.DOMAIN",
          "mandatory": true,
          "name": "DOMAIN",
          "description": "Domain Abbreviation",
          "dataType": "text",
          "length": 2,
          "codeList": "CL.EX.DOMAIN",
          "origin": {
            "type": "Assigned",
            "source": "Sponsor"
          }
        },
        {
          "OID": "IT.USUBJID",
          "mandatory": true,
          "name": "USUBJID",
          "description": "Unique Subject Identifier",
          "dataType": "text",
          "length": 14,
          "method": "MT.USUBJID",
          "origin": {
            "type": "Derived",
            "source": "Sponsor"
          }
        },
        {
          "OID": "IT.EX.EXSEQ",
          "mandatory": true,
          "name": "EXSEQ",
          "description": "Sequence Number",
          "dataType": "integer",
          "length": 1,
          "method": "MT.SEQ",
          "origin": {
            "type": "Derived",
            "source": "Sponsor"
          }
        },
        {
          "OID": "IT.EX.EXTRT",
          "mandatory": true,
          "name": "EXTRT",
          "description": "Name of Actual Treatment",
          "dataType": "text",
          "length": 20,
          "codeList": "CL.EXTRT",
          "method": "MT.EXTRT",
          "origin": {
            "type": "Derived",
            "source": "Sponsor"
          }
        },
        {
          "OID": "IT.EX.EXDOSE",
          "mandatory": false,
          "name": "EXDOSE",
          "description": "Dose per Administration",
          "dataType": "integer",
          "length": 2,
          "method": "MT.EXDOSE",
          "origin": {
            "type": "Derived",
            "source": "Sponsor"
          }
        },
        {
          "OID": "IT.EX.EXDOSU",
          "mandatory": false,
          "name": "EXDOSU",
          "description": "Dose Units",
          "dataType": "text",
          "length": 2,
          "method": "MT.EXDOSU",
          "origin": {
            "type": "Derived",
            "source": "Sponsor"
          }
        },
        {
          "OID": "IT.EX.EXDOSFRM",
          "mandatory": false,
          "name": "EXDOSFRM",
          "description": "Dose Form",
          "dataType": "text",
          "length": 7,
          "codeList": "CL.FRM",
          "origin": {
            "type": "Predecessor",
            "source": "Sponsor",
            "documents": [
              {
                "OID": "LF.acrf",
                "leafID": "LF.acrf"
              }
            ]
          }
        },
        {
          "OID": "IT.EX.EXSTDTC",
          "mandatory": false,
          "name": "EXSTDTC",
          "description": "Start Date/Time of Treatment",
          "dataType": "date",
          "origin": {
            "type": "Predecessor",
            "source": "Sponsor",
            "documents": [
              {
                "OID": "LF.acrf",
                "leafID": "LF.acrf"
              }
            ]
          }
        },
        {
          "OID": "IT.EX.EXENDTC",
          "mandatory": false,
          "name": "EXENDTC",
          "description": "End Date/Time of Treatment",
          "dataType": "date",
          "origin": {
            "type": "Predecessor",
            "source": "Sponsor",
            "documents": [
              {
                "OID": "LF.acrf",
                "leafID": "LF.acrf"
              }
            ]
          }
        },
        {
          "OID": "IT.EX.EXSTDY",
          "mandatory": false,
          "name": "EXSTDY",
          "description": "Study Day of Start of Treatment",
          "dataType": "integer",
          "length": 2,
          "method": "MT.EXSTDY",
          "origin": {
            "type": "Derived",
            "source": "Sponsor"
          }
        },
        {
          "OID": "IT.EX.EXENDY",
          "mandatory": false,
          "name": "EXENDY",
          "description": "Study Day of End of Treatment",
          "dataType": "integer",
          "length": 2,
          "method": "MT.EXENDY",
          "origin": {
            "type": "Derived",
            "source": "Sponsor"
          }
        }
      ],
      "keySequence": [
        "IT.STUDYID",
        "IT.USUBJID",
        "IT.EX.EXSTDTC",
        "IT.EX.EXENDTC",
        "IT.EX.EXTRT",
        "IT.EX.EXDOSE"
      ]
    },
    {
      "OID": "IG.LB",
      "purpose": "Tabulation",
      "name": "LB",
      "description": "Laboratory Tests Results",
      "domain": "LB",
      "structure": "One record per analyte per visit per subject",
      "isReferenceData": false,
      "items": [
        {
          "OID": "IT.STUDYID",
          "mandatory": true,
          "name": "STUDYID",
          "description": "Study Identifier",
          "dataType": "text",
          "length": 7,
          "origin": {
            "type": "Protocol",
            "source": "Sponsor"
          }
        },
        {
          "OID": "IT.LB.DOMAIN",
          "mandatory": true,
          "name": "DOMAIN",
          "description": "Domain Abbreviation",
          "dataType": "text",
          "length": 2,
          "codeList": "CL.LB.DOMAIN",
          "origin": {
            "type": "Assigned",
            "source": "Sponsor"
          }
        },
        {
          "OID": "IT.USUBJID",
          "mandatory": true,
          "name": "USUBJID",
          "description": "Unique Subject Identifier",
          "dataType": "text",
          "length": 14,
          "method": "MT.USUBJID",
          "origin": {
            "type": "Derived",
            "source": "Sponsor"
          }
        },
        {
          "OID": "IT.LB.LBSEQ",
          "mandatory": true,
          "name": "LBSEQ",
          "description": "Sequence Number",
          "dataType": "integer",
          "length": 2,
          "method": "MT.SEQ",
          "origin": {
            "type": "Derived",
            "source": "Sponsor"
          }
        },
        {
          "OID": "IT.LB.LBREFID",
          "mandatory": false,
          "name": "LBREFID",
          "description": "Specimen ID",
          "dataType": "text",
          "length": 7,
          "origin": {
            "type": "Collected",
            "source": "Vendor"
          }
        },
        {
          "OID": "IT.LB.LBTESTCD",
          "mandatory": true,
          "name": "LBTESTCD",
          "description": "Lab Test or Examination Short Name",
          "dataType": "text",
          "length": 7,
          "codeList": "CL.LBTESTCD",
          "origin": {
            "type": "Assigned",
            "source": "Sponsor"
          }
        },
        {
          "OID": "IT.LB.LBTEST",
          "mandatory": true,
          "name": "LBTEST",
          "description": "Lab Test or Examination Name",
          "dataType": "text",
          "length": 22,
          "codeList": "CL.LBTEST",
          "origin": {
            "type": "Collected",
            "source": "Vendor"
          }
        },
        {
          "OID": "IT.LB.LBCAT",
          "mandatory": false,
          "name": "LBCAT",
          "description": "Category for Lab Test",
          "dataType": "text",
          "length": 10,
          "origin": {
            "type": "Collected",
            "source": "Vendor"
          }
        },
        {
          "OID": "IT.LB.LBORRES",
          "mandatory": false,
          "name": "LBORRES",
          "description": "Result or Finding in Original Units",
          "dataType": "text",
          "length": 8
        },
        {
          "OID": "IT.LB.LBORRESU",
          "mandatory": false,
          "name": "LBORRESU",
          "description": "Original Units",
          "dataType": "text",
          "length": 7,
          "codeList": "CL.LBRESU",
          "origin": {
            "type": "Collected",
            "source": "Vendor"
          }
        },
        {
          "OID": "IT.LB.LBORNRLO",
          "mandatory": false,
          "name": "LBORNRLO",
          "description": "Reference Range Lower Limit in Orig Unit",
          "displayFormat": "6.1",
          "significantDigits": 2,
          "dataType": "float",
          "length": 6,
          "origin": {
            "type": "Collected",
            "source": "Vendor"
          }
        },
        {
          "OID": "IT.LB.LBORNRHI",
          "mandatory": false,
          "name": "LBORNRHI",
          "description": "Reference Range Upper Limit in Orig Unit",
          "displayFormat": "6.1",
          "significantDigits": 2,
          "dataType": "float",
          "length": 6,
          "origin": {
            "type": "Collected",
            "source": "Vendor"
          }
        },
        {
          "OID": "IT.LB.LBSTRESC",
          "mandatory": false,
          "name": "LBSTRESC",
          "description": "Character Result/Finding in Std Format",
          "dataType": "text",
          "length": 8,
          "origin": {
            "type": "Collected",
            "source": "Vendor"
          }
        },
        {
          "OID": "IT.LB.LBSTRESN",
          "mandatory": false,
          "name": "LBSTRESN",
          "description": "Numeric Result/Finding in Standard Units",
          "displayFormat": "5.2",
          "significantDigits": 2,
          "dataType": "float",
          "length": 5,
          "origin": {
            "type": "Collected",
            "source": "Vendor"
          }
        },
        {
          "OID": "IT.LB.LBSTRESU",
          "mandatory": false,
          "name": "LBSTRESU",
          "description": "Standard Units",
          "dataType": "text",
          "length": 7,
          "origin": {
            "type": "Collected",
            "source": "Vendor"
          }
        },
        {
          "OID": "IT.LB.LBSTNRLO",
          "mandatory": false,
          "name": "LBSTNRLO",
          "description": "Reference Range Lower Limit-Std Units",
          "displayFormat": "4.2",
          "significantDigits": 2,
          "dataType": "float",
          "length": 4,
          "origin": {
            "type": "Collected",
            "source": "Vendor"
          }
        },
        {
          "OID": "IT.LB.LBSTNRHI",
          "mandatory": false,
          "name": "LBSTNRHI",
          "description": "Reference Range Upper Limit-Std Units",
          "displayFormat": "4.2",
          "significantDigits": 2,
          "dataType": "float",
          "length": 4,
          "origin": {
            "type": "Collected",
            "source": "Vendor"
          }
        },
        {
          "OID": "IT.LB.LBSTNRC",
          "mandatory": false,
          "name": "LBSTNRC",
          "description": "Reference Range for Char Rslt-Std Units",
          "dataType": "text",
          "length": 19,
          "origin": {
            "type": "Collected",
            "source": "Vendor"
          }
        },
        {
          "OID": "IT.LB.LBNRIND",
          "mandatory": false,
          "name": "LBNRIND",
          "description": "Reference Range Indicator",
          "dataType": "text",
          "length": 20,
          "codeList": "CL.NRIND",
          "method": "MT.LBNRIND",
          "origin": {
            "type": "Assigned",
            "source": "Vendor"
          }
        },
        {
          "OID": "IT.LB.LBNAM",
          "mandatory": false,
          "name": "LBNAM",
          "description": "Vendor Name",
          "dataType": "text",
          "length": 20,
          "origin": {
            "type": "Collected",
            "source": "Vendor"
          }
        },
        {
          "OID": "IT.LB.LBSPEC",
          "mandatory": true,
          "name": "LBSPEC",
          "description": "Specimen Type",
          "dataType": "text",
          "length": 5,
          "codeList": "CL.SPECTYPE",
          "origin": {
            "type": "Collected",
            "source": "Vendor"
          }
        },
        {
          "OID": "IT.LB.LBMETHOD",
          "mandatory": false,
          "name": "LBMETHOD",
          "description": "Method of Test or Examination",
          "dataType": "text",
          "length": 8,
          "codeList": "CL.METHOD",
          "origin": {
            "type": "Collected",
            "source": "Vendor"
          }
        },
        {
          "OID": "IT.LB.LBBLFL",
          "mandatory": false,
          "name": "LBBLFL",
          "description": "Baseline Flag",
          "dataType": "text",
          "length": 1,
          "codeList": "CL.NY",
          "method": "MT.LBBLFL",
          "origin": {
            "type": "Derived",
            "source": "Sponsor"
          }
        },
        {
          "OID": "IT.LB.LBFAST",
          "mandatory": false,
          "name": "LBFAST",
          "description": "Fasting Status",
          "dataType": "text",
          "length": 1,
          "codeList": "CL.NY",
          "origin": {
            "type": "Collected",
            "source": "Vendor"
          }
        },
        {
          "OID": "IT.LB.VISITNUM",
          "mandatory": false,
          "name": "VISITNUM",
          "description": "Visit Number",
          "dataType": "integer",
          "length": 2,
          "origin": {
            "type": "Assigned",
            "source": "Sponsor"
          }
        },
        {
          "OID": "IT.LB.VISIT",
          "mandatory": false,
          "name": "VISIT",
          "description": "Visit Name",
          "dataType": "text",
          "length": 7,
          "origin": {
            "type": "Collected",
            "source": "Vendor"
          }
        },
        {
          "OID": "IT.LB.VISITDY",
          "mandatory": false,
          "name": "VISITDY",
          "description": "Planned Study Day of Visit",
          "dataType": "integer",
          "length": 3,
          "origin": {
            "type": "Protocol",
            "source": "Sponsor"
          }
        },
        {
          "OID": "IT.LB.LBDTC",
          "mandatory": false,
          "name": "LBDTC",
          "description": "Date/Time of Specimen Collection",
          "dataType": "datetime",
          "origin": {
            "type": "Collected",
            "source": "Vendor"
          }
        },
        {
          "OID": "IT.LB.LBDY",
          "mandatory": false,
          "name": "LBDY",
          "description": "Study Day of Specimen Collection",
          "dataType": "integer",
          "length": 3,
          "method": "MT.LBDY",
          "origin": {
            "type": "Derived",
            "source": "Sponsor"
          }
        }
      ],
      "keySequence": [
        "IT.STUDYID",
        "IT.USUBJID",
        "IT.LB.LBCAT",
        "IT.LB.LBMETHOD",
        "IT.LB.LBTESTCD",
        "IT.LB.LBDTC",
        "IT.LB.VISITNUM",
        "IT.LB.LBNAM"
      ],
      "slices": [
        {
          "OID": "VL.LB.LBORRES",
          "name": "VL_LB_LBORRES",
          "type": "ValueList",
          "items": [
            {
              "OID": "IT.LB.LBORRES.SET1.LBSPEC.BLOOD",
              "mandatory": false,
              "name": "SET1",
              "description": "Result or Finding in Orig Units - Set 1",
              "significantDigits": 1,
              "dataType": "float",
              "length": 3,
              "applicableWhen": [
                "WC.LB.LBTESTCD.SET1.LBSPEC.BLOOD"
              ],
              "origin": {
                "type": "Collected",
                "source": "Vendor"
              }
            },
            {
              "OID": "IT.LB.LBORRES.SET2.LBSPEC.BLOOD",
              "mandatory": false,
              "name": "SET2",
              "description": "Result or Finding in Orig Units - Set 2",
              "significantDigits": 2,
              "dataType": "float",
              "length": 4,
              "applicableWhen": [
                "WC.LB.LBTESTCD.SET2.LBSPEC.BLOOD"
              ],
              "origin": {
                "type": "Collected",
                "source": "Vendor"
              }
            },
            {
              "OID": "IT.LB.LBORRES.SET3.LBSPEC.URINE",
              "mandatory": false,
              "name": "SET3",
              "description": "Result or Finding in Orig Units Set 3",
              "dataType": "text",
              "length": 8,
              "applicableWhen": [
                "WC.LB.LBTESTCD.SET3.LBSPEC.URINE"
              ],
              "origin": {
                "type": "Collected",
                "source": "Vendor"
              }
            },
            {
              "OID": "IT.LB.LBORRES.HCT.LBSPEC.BLOOD.VENDOR",
              "mandatory": false,
              "name": "HCT",
              "description": "Hematocrit",
              "significantDigits": 2,
              "dataType": "float",
              "length": 4,
              "applicableWhen": [
                "WC.LB.LBTESTCD.HCT.LBSPEC.BLOOD.VENDOR"
              ],
              "origin": {
                "type": "Collected",
                "source": "Vendor"
              }
            },
            {
              "OID": "IT.LB.LBORRES.HCT.LBSPEC.BLOOD.CRF",
              "mandatory": false,
              "name": "HCT",
              "description": "Hematocrit",
              "significantDigits": 2,
              "dataType": "float",
              "length": 4,
              "applicableWhen": [
                "WC.LB.LBTESTCD.HCT.LBSPEC.BLOOD.CRF"
              ],
              "origin": {
                "type": "Collected",
                "source": "Investigator",
                "documents": [
                  {
                    "OID": "LF.acrf",
                    "leafID": "LF.acrf"
                  }
                ]
              }
            },
            {
              "OID": "IT.LB.LBORRES.PH.LBSPEC.URINE",
              "mandatory": false,
              "name": "PH",
              "description": "pH",
              "significantDigits": 2,
              "dataType": "float",
              "length": 3,
              "applicableWhen": [
                "WC.LB.LBTESTCD.PH.LBSPEC.URINE"
              ],
              "origin": {
                "type": "Collected",
                "source": "Vendor"
              }
            },
            {
              "OID": "IT.LB.LBORRES.VITB12.LBSPEC.SERUM",
              "mandatory": false,
              "name": "VITB12",
              "description": "Vitamin B12",
              "dataType": "integer",
              "length": 3,
              "applicableWhen": [
                "WC.LB.LBTESTCD.VITB12.LBSPEC.SERUM"
              ],
              "origin": {
                "type": "Collected",
                "source": "Vendor"
              }
            },
            {
              "OID": "IT.LB.LBORRES.VITB9.LBSPEC.BLOOD",
              "mandatory": false,
              "name": "VITB9",
              "description": "Vitamin B9",
              "significantDigits": 1,
              "dataType": "float",
              "length": 5,
              "applicableWhen": [
                "WC.LB.LBTESTCD.VITB9.LBSPEC.BLOOD"
              ],
              "origin": {
                "type": "Collected",
                "source": "Vendor"
              }
            }
          ]
        }
      ]
    },
    {
      "OID": "IG.VS",
      "purpose": "Tabulation",
      "name": "VS",
      "description": "Vital Signs",
      "domain": "VS",
      "structure": "One record per vital sign measurement per visit per subject",
      "isReferenceData": false,
      "items": [
        {
          "OID": "IT.STUDYID",
          "mandatory": true,
          "name": "STUDYID",
          "description": "Study Identifier",
          "dataType": "text",
          "length": 7,
          "origin": {
            "type": "Protocol",
            "source": "Sponsor"
          }
        },
        {
          "OID": "IT.VS.DOMAIN",
          "mandatory": true,
          "name": "DOMAIN",
          "description": "Domain Abbreviation",
          "dataType": "text",
          "length": 2,
          "codeList": "CL.VS.DOMAIN",
          "origin": {
            "type": "Assigned",
            "source": "Sponsor"
          }
        },
        {
          "OID": "IT.USUBJID",
          "mandatory": true,
          "name": "USUBJID",
          "description": "Unique Subject Identifier",
          "dataType": "text",
          "length": 14,
          "method": "MT.USUBJID",
          "origin": {
            "type": "Derived",
            "source": "Sponsor"
          }
        },
        {
          "OID": "IT.VS.VSSEQ",
          "mandatory": true,
          "name": "VSSEQ",
          "description": "Sequence Number",
          "dataType": "integer",
          "length": 2,
          "method": "MT.SEQ",
          "origin": {
            "type": "Derived",
            "source": "Sponsor"
          }
        },
        {
          "OID": "IT.VS.VSTESTCD",
          "mandatory": true,
          "name": "VSTESTCD",
          "description": "Vital Signs Test Short Name",
          "dataType": "text",
          "length": 20,
          "codeList": "CL.VSTESTCD",
          "origin": {
            "type": "Assigned",
            "source": "Sponsor"
          }
        },
        {
          "OID": "IT.VS.VSTEST",
          "mandatory": true,
          "name": "VSTEST",
          "description": "Vital Signs Test Name",
          "dataType": "text",
          "length": 24,
          "codeList": "CL.VSTEST",
          "origin": {
            "type": "Collected",
            "source": "Investigator",
            "documents": [
              {
                "OID": "LF.acrf",
                "leafID": "LF.acrf"
              }
            ]
          }
        },
        {
          "OID": "IT.VS.VSPOS",
          "mandatory": false,
          "name": "VSPOS",
          "description": "Vital Signs Position of Subject",
          "dataType": "text",
          "length": 7,
          "origin": {
            "type": "Collected",
            "source": "Investigator",
            "documents": [
              {
                "OID": "LF.acrf",
                "leafID": "LF.acrf"
              }
            ]
          }
        },
        {
          "OID": "IT.VS.VSORRES",
          "mandatory": false,
          "name": "VSORRES",
          "description": "Result or Finding in Original Units",
          "dataType": "text",
          "length": 30,
          "origin": {
            "type": "Collected",
            "source": "Investigator",
            "documents": [
              {
                "OID": "LF.acrf",
                "leafID": "LF.acrf"
              }
            ]
          }
        },
        {
          "OID": "IT.VS.VSORRESU",
          "mandatory": false,
          "name": "VSORRESU",
          "description": "Original Units",
          "dataType": "text",
          "length": 20,
          "origin": {
            "type": "Collected",
            "source": "Investigator",
            "documents": [
              {
                "OID": "LF.acrf",
                "leafID": "LF.acrf"
              }
            ]
          }
        },
        {
          "OID": "IT.VS.VSSTRESC",
          "mandatory": true,
          "name": "VSSTRESC",
          "description": "Character Result/Finding in Std Format",
          "dataType": "text",
          "length": 6,
          "method": "MT.VSSTRESC",
          "origin": {
            "type": "Derived",
            "source": "Sponsor"
          }
        },
        {
          "OID": "IT.VS.VSSTRESN",
          "mandatory": false,
          "name": "VSSTRESN",
          "description": "Numeric Result/Finding in Standard Units",
          "displayFormat": "6.2",
          "significantDigits": 2,
          "dataType": "float",
          "length": 6,
          "method": "MT.VSSTRESN",
          "origin": {
            "type": "Derived",
            "source": "Sponsor"
          }
        },
        {
          "OID": "IT.VS.VSSTRESU",
          "mandatory": false,
          "name": "VSSTRESU",
          "description": "Standard Units",
          "dataType": "text",
          "length": 9,
          "codeList": "CL.VSRESU",
          "origin": {
            "type": "Assigned",
            "source": "Sponsor"
          }
        },
        {
          "OID": "IT.VS.VSBLFL",
          "mandatory": false,
          "name": "VSBLFL",
          "description": "Baseline Flag",
          "dataType": "text",
          "length": 1,
          "codeList": "CL.NY",
          "method": "MT.VSBLFL",
          "origin": {
            "type": "Derived",
            "source": "Sponsor"
          }
        },
        {
          "OID": "IT.VS.VISITNUM",
          "mandatory": false,
          "name": "VISITNUM",
          "description": "Visit Number",
          "displayFormat": "Z2.",
          "dataType": "integer",
          "length": 2,
          "origin": {
            "type": "Assigned",
            "source": "Sponsor"
          }
        },
        {
          "OID": "IT.VS.VISIT",
          "mandatory": false,
          "name": "VISIT",
          "description": "Visit Name",
          "dataType": "text",
          "length": 8,
          "origin": {
            "type": "Assigned",
            "source": "Sponsor"
          }
        },
        {
          "OID": "IT.VS.VISITDY",
          "mandatory": false,
          "name": "VISITDY",
          "description": "Planned Study Day of Visit",
          "dataType": "integer",
          "length": 3,
          "origin": {
            "type": "Protocol",
            "source": "Sponsor"
          }
        },
        {
          "OID": "IT.VS.VSDTC",
          "mandatory": false,
          "name": "VSDTC",
          "description": "Date/Time of Measurements",
          "dataType": "date",
          "origin": {
            "type": "Collected",
            "source": "Investigator",
            "documents": [
              {
                "OID": "LF.acrf",
                "leafID": "LF.acrf"
              }
            ]
          }
        },
        {
          "OID": "IT.VS.VSDY",
          "mandatory": false,
          "name": "VSDY",
          "description": "Study Day of Vital Signs",
          "dataType": "integer",
          "length": 3,
          "method": "MT.VSDY",
          "origin": {
            "type": "Derived",
            "source": "Sponsor"
          }
        }
      ],
      "keySequence": [
        "IT.STUDYID",
        "IT.USUBJID",
        "IT.VS.VSTESTCD",
        "IT.VS.VSDTC",
        "IT.VS.VISITNUM",
        "IT.VS.VSPOS"
      ],
      "slices": [
        {
          "OID": "VL.VS.VSORRES",
          "name": "VL_VS_VSORRES",
          "type": "ValueList",
          "items": [
            {
              "OID": "IT.VS.VSORRES.DIABP",
              "mandatory": true,
              "name": "VSORRES1",
              "description": "Diastolic Blood Pressure in Orig U",
              "dataType": "integer",
              "length": 2,
              "applicableWhen": [
                "WC.VS.VSTESTCD.DIABP"
              ],
              "origin": {
                "type": "Collected",
                "source": "Investigator",
                "documents": [
                  {
                    "OID": "LF.acrf",
                    "leafID": "LF.acrf"
                  }
                ]
              }
            },
            {
              "OID": "IT.VS.VSORRES.FRMSIZE",
              "mandatory": false,
              "name": "VSORRES2",
              "description": "Body Frame Size - Orig",
              "dataType": "text",
              "length": 6,
              "codeList": "CL.SIZE",
              "applicableWhen": [
                "WC.VS.VSTESTCD.FRMSIZE"
              ],
              "origin": {
                "type": "Collected",
                "source": "Investigator",
                "documents": [
                  {
                    "OID": "LF.acrf",
                    "leafID": "LF.acrf"
                  }
                ]
              }
            },
            {
              "OID": "IT.VS.VSORRES.HEIGHT",
              "mandatory": true,
              "name": "VSORRES3",
              "description": "Height in Orig U",
              "displayFormat": "5.1",
              "significantDigits": 1,
              "dataType": "float",
              "length": 5,
              "applicableWhen": [
                "WC.VS.VSTESTCD.HEIGHT"
              ],
              "origin": {
                "type": "Collected",
                "source": "Investigator",
                "documents": [
                  {
                    "OID": "LF.acrf",
                    "leafID": "LF.acrf"
                  }
                ]
              }
            },
            {
              "OID": "IT.VS.VSORRES.PULSE",
              "mandatory": false,
              "name": "VSORRES4",
              "description": "Pulse Rate in Orig U",
              "dataType": "integer",
              "length": 2,
              "applicableWhen": [
                "WC.VS.VSTESTCD.PULSE"
              ],
              "origin": {
                "type": "Collected",
                "source": "Investigator",
                "documents": [
                  {
                    "OID": "LF.acrf",
                    "leafID": "LF.acrf"
                  }
                ]
              }
            },
            {
              "OID": "IT.VS.VSORRES.SYSBP",
              "mandatory": true,
              "name": "VSORRES5",
              "description": "Systolic Blood Pressure in Orig U",
              "dataType": "integer",
              "length": 3,
              "applicableWhen": [
                "WC.VS.VSTESTCD.SYSBP"
              ],
              "origin": {
                "type": "Collected",
                "source": "Investigator",
                "documents": [
                  {
                    "OID": "LF.acrf",
                    "leafID": "LF.acrf"
                  }
                ]
              }
            },
            {
              "OID": "IT.VS.VSORRES.WEIGHT",
              "mandatory": true,
              "name": "VSORRES6",
              "description": "Weight in Orig U",
              "displayFormat": "5.1",
              "significantDigits": 1,
              "dataType": "float",
              "length": 4,
              "applicableWhen": [
                "WC.VS.VSTESTCD.WEIGHT"
              ],
              "origin": {
                "type": "Collected",
                "source": "Investigator",
                "documents": [
                  {
                    "OID": "LF.acrf",
                    "leafID": "LF.acrf"
                  }
                ]
              }
            }
          ]
        },
        {
          "OID": "VL.VS.VSSTRESC",
          "name": "VL_VS_VSSTRESC",
          "type": "ValueList",
          "items": [
            {
              "OID": "IT.VS.VSSTRESC.DIABP",
              "mandatory": true,
              "name": "VSSTRESC1",
              "description": "Diastolic Blood Pressure Char in Std U",
              "dataType": "integer",
              "length": 2,
              "applicableWhen": [
                "WC.VS.VSTESTCD.DIABP"
              ]
            },
            {
              "OID": "IT.VS.VSSTRESC.FRMSIZE",
              "mandatory": false,
              "name": "VSSTRESC2",
              "description": "Body Frame Size - Std",
              "dataType": "text",
              "length": 6,
              "codeList": "CL.SIZE",
              "applicableWhen": [
                "WC.VS.VSTESTCD.FRMSIZE"
              ]
            },
            {
              "OID": "IT.VS.VSSTRESC.HEIGHT",
              "mandatory": true,
              "name": "VSSTRESC3",
              "description": "Height Char in Std U",
              "displayFormat": "5.1",
              "significantDigits": 1,
              "dataType": "float",
              "length": 5,
              "applicableWhen": [
                "WC.VS.VSTESTCD.HEIGHT"
              ]
            },
            {
              "OID": "IT.VS.VSSTRESC.PULSE",
              "mandatory": false,
              "name": "VSSTRESC4",
              "description": "Pulse Rate Char in Std U",
              "dataType": "integer",
              "length": 2,
              "applicableWhen": [
                "WC.VS.VSTESTCD.PULSE"
              ]
            },
            {
              "OID": "IT.VS.VSSTRESC.SYSBP",
              "mandatory": true,
              "name": "VSSTRESC5",
              "description": "Systolic Blood Pressure Char in Std U",
              "dataType": "integer",
              "length": 3,
              "applicableWhen": [
                "WC.VS.VSTESTCD.SYSBP"
              ]
            },
            {
              "OID": "IT.VS.VSSTRESC.WEIGHT",
              "mandatory": true,
              "name": "VSSTRESC6",
              "description": "Weight Char in Std U",
              "displayFormat": "5.1",
              "significantDigits": 1,
              "dataType": "float",
              "length": 4,
              "applicableWhen": [
                "WC.VS.VSTESTCD.WEIGHT"
              ]
            },
            {
              "OID": "IT.VS.VSSTRESC.BMI",
              "mandatory": true,
              "name": "VSSTRESC7",
              "description": "BMI (Std U)",
              "displayFormat": "5.1",
              "significantDigits": 1,
              "dataType": "float",
              "length": 6,
              "method": "MT.BMISC",
              "applicableWhen": [
                "WC.VS.VSTESTCD.BMI"
              ]
            }
          ]
        },
        {
          "OID": "VL.VS.VSSTRESN",
          "name": "VL_VS_VSSTRESN",
          "type": "ValueList",
          "items": [
            {
              "OID": "IT.VS.VSSTRESN.DIABP",
              "mandatory": true,
              "name": "VSSTRESN1",
              "description": "Diastolic Blood Pressure Num in Std U",
              "dataType": "integer",
              "length": 2,
              "applicableWhen": [
                "WC.VS.VSTESTCD.DIABP"
              ]
            },
            {
              "OID": "IT.VS.VSSTRESN.HEIGHT",
              "mandatory": true,
              "name": "VSSTRESN2",
              "description": "Height Num in Std U",
              "displayFormat": "5.1",
              "significantDigits": 1,
              "dataType": "float",
              "length": 5,
              "applicableWhen": [
                "WC.VS.VSTESTCD.HEIGHT"
              ]
            },
            {
              "OID": "IT.VS.VSSTRESN.PULSE",
              "mandatory": false,
              "name": "VSSTRESN3",
              "description": "Pulse Rate Num in Std U",
              "dataType": "integer",
              "length": 2,
              "applicableWhen": [
                "WC.VS.VSTESTCD.PULSE"
              ]
            },
            {
              "OID": "IT.VS.VSSTRESN.SYSBP",
              "mandatory": true,
              "name": "VSSTRESN4",
              "description": "Systolic Blood Pressure Num in Std U",
              "dataType": "integer",
              "length": 3,
              "applicableWhen": [
                "WC.VS.VSTESTCD.SYSBP"
              ]
            },
            {
              "OID": "IT.VS.VSSTRESN.WEIGHT",
              "mandatory": true,
              "name": "VSSTRESN5",
              "description": "Weight Num in Std U",
              "displayFormat": "5.1",
              "significantDigits": 1,
              "dataType": "float",
              "length": 4,
              "applicableWhen": [
                "WC.VS.VSTESTCD.WEIGHT"
              ]
            },
            {
              "OID": "IT.VS.VSSTRESN.BMI",
              "mandatory": true,
              "name": "VSSTRESN6",
              "description": "BMI Num in Std U",
              "displayFormat": "6.2",
              "significantDigits": 2,
              "dataType": "float",
              "length": 6,
              "method": "MT.BMISN",
              "applicableWhen": [
                "WC.VS.VSTESTCD.BMI"
              ],
              "origin": {
                "type": "Derived",
                "source": "Sponsor",
                "documents": [
                  {
                    "OID": "LF.acrf",
                    "leafID": "LF.acrf"
                  }
                ]
              }
            }
          ]
        },
        {
          "OID": "VL.VS.VSORRESU",
          "name": "VL_VS_VSORRESU",
          "type": "ValueList",
          "items": [
            {
              "OID": "IT.VS.VSORRESU.HEIGHT.DM.COUNTRY.CMETRIC",
              "mandatory": true,
              "name": "VSORRESU1",
              "description": "Height: Original Units MC",
              "dataType": "text",
              "length": 5,
              "codeList": "CL.UH_MC",
              "applicableWhen": [
                "WC.VS.VSTESTCD.HEIGHT.DM.COUNTRY.CMETRIC"
              ],
              "origin": {
                "type": "Collected",
                "source": "Investigator",
                "documents": [
                  {
                    "OID": "LF.acrf",
                    "leafID": "LF.acrf"
                  }
                ]
              }
            },
            {
              "OID": "IT.VS.VSORRESU.HEIGHT.DM.COUNTRY.CNMETRIC",
              "mandatory": true,
              "name": "VSORRESU2",
              "description": "Height: Original Units NMC",
              "dataType": "text",
              "length": 5,
              "codeList": "CL.UH_NMC",
              "applicableWhen": [
                "WC.VS.VSTESTCD.HEIGHT.DM.COUNTRY.CNMETRIC"
              ],
              "origin": {
                "type": "Collected",
                "source": "Investigator",
                "documents": [
                  {
                    "OID": "LF.acrf",
                    "leafID": "LF.acrf"
                  }
                ]
              }
            },
            {
              "OID": "IT.VS.VSORRESU.WEIGHT.DM.COUNTRY.CMETRIC",
              "mandatory": true,
              "name": "VSORRESU3",
              "description": "Weight: Original Units MC",
              "dataType": "text",
              "length": 4,
              "codeList": "CL.UW_MC",
              "applicableWhen": [
                "WC.VS.VSTESTCD.WEIGHT.DM.COUNTRY.CMETRIC"
              ],
              "origin": {
                "type": "Collected",
                "source": "Investigator",
                "documents": [
                  {
                    "OID": "LF.acrf",
                    "leafID": "LF.acrf"
                  }
                ]
              }
            },
            {
              "OID": "IT.VS.VSORRESU.WEIGHT.DM.COUNTRY.CNMETRIC",
              "mandatory": true,
              "name": "VSORRESU4",
              "description": "Weight: Original Units NMC",
              "dataType": "text",
              "length": 4,
              "codeList": "CL.UW_NMC",
              "applicableWhen": [
                "WC.VS.VSTESTCD.WEIGHT.DM.COUNTRY.CNMETRIC"
              ],
              "origin": {
                "type": "Collected",
                "source": "Investigator",
                "documents": [
                  {
                    "OID": "LF.acrf",
                    "leafID": "LF.acrf"
                  }
                ]
              }
            }
          ]
        }
      ]
    },
    {
      "OID": "IG.XS",
      "purpose": "Tabulation",
      "name": "XS",
      "description": "S Findings",
      "domain": "XS",
      "structure": "One record per finding per visit per subject",
      "isReferenceData": false,
      "items": [
        {
          "OID": "IT.STUDYID",
          "mandatory": true,
          "name": "STUDYID",
          "description": "Study Identifier",
          "dataType": "text",
          "length": 7,
          "origin": {
            "type": "Protocol",
            "source": "Sponsor"
          }
        },
        {
          "OID": "IT.XS.DOMAIN",
          "mandatory": true,
          "name": "DOMAIN",
          "description": "Domain Abbreviation",
          "dataType": "text",
          "length": 2,
          "codeList": "CL.VS.DOMAIN",
          "origin": {
            "type": "Assigned",
            "source": "Sponsor"
          }
        },
        {
          "OID": "IT.USUBJID",
          "mandatory": true,
          "name": "USUBJID",
          "description": "Unique Subject Identifier",
          "dataType": "text",
          "length": 14,
          "method": "MT.USUBJID",
          "origin": {
            "type": "Derived",
            "source": "Sponsor"
          }
        },
        {
          "OID": "IT.SPDEVID",
          "mandatory": true,
          "name": "SPDEVID",
          "description": "Sponsor Device Identifier",
          "dataType": "text",
          "length": 30,
          "origin": {
            "type": "Collected",
            "source": "Vendor"
          }
        },
        {
          "OID": "IT.XS.XSSEQ",
          "mandatory": true,
          "name": "XSSEQ",
          "description": "Sequence Number",
          "dataType": "integer",
          "length": 2,
          "method": "MT.SEQ",
          "origin": {
            "type": "Derived",
            "source": "Sponsor"
          }
        },
        {
          "OID": "IT.XS.XSTESTCD",
          "mandatory": true,
          "name": "XSTESTCD",
          "description": "S Findings Test Short Name",
          "dataType": "text",
          "length": 20,
          "codeList": "CL.XSTESTCD",
          "origin": {
            "type": "Assigned",
            "source": "Sponsor"
          }
        },
        {
          "OID": "IT.XS.XSTEST",
          "mandatory": true,
          "name": "XSTEST",
          "description": "S Findings Test Name",
          "dataType": "text",
          "length": 24,
          "codeList": "CL.XSTEST",
          "origin": {
            "type": "Collected",
            "source": "Vendor"
          }
        },
        {
          "OID": "IT.XS.XSORRES",
          "mandatory": false,
          "name": "XSORRES",
          "description": "Result or Finding in Original Units",
          "dataType": "text",
          "length": 30,
          "origin": {
            "type": "Collected",
            "source": "Vendor"
          }
        },
        {
          "OID": "IT.XS.XSORRESU",
          "mandatory": false,
          "name": "XSORRESU",
          "description": "Original Units",
          "dataType": "text",
          "length": 20,
          "codeList": "CL.XSRESU",
          "origin": {
            "type": "Collected",
            "source": "Vendor"
          }
        },
        {
          "OID": "IT.XS.XSSTRESC",
          "mandatory": true,
          "name": "XSSTRESC",
          "description": "Character Result/Finding in Std Format",
          "dataType": "text",
          "length": 30,
          "method": "MT.XSSTRESC",
          "origin": {
            "type": "Derived",
            "source": "Sponsor"
          }
        },
        {
          "OID": "IT.XS.XSSTRESN",
          "mandatory": false,
          "name": "XSSTRESN",
          "description": "Numeric Result/Finding in Standard Units",
          "displayFormat": "5.1",
          "significantDigits": 1,
          "dataType": "float",
          "length": 5,
          "method": "MT.XSSTRESN",
          "origin": {
            "type": "Derived",
            "source": "Sponsor"
          }
        },
        {
          "OID": "IT.XS.XSSTRESU",
          "mandatory": false,
          "name": "XSSTRESU",
          "description": "Standard Units",
          "dataType": "text",
          "length": 9,
          "codeList": "CL.XSRESU",
          "origin": {
            "type": "Assigned",
            "source": "Sponsor"
          }
        },
        {
          "OID": "IT.XS.XSBLFL",
          "mandatory": false,
          "name": "XSBLFL",
          "description": "Baseline Flag",
          "dataType": "text",
          "length": 1,
          "codeList": "CL.NY",
          "method": "MT.XSBLFL",
          "origin": {
            "type": "Derived",
            "source": "Sponsor"
          }
        },
        {
          "OID": "IT.XS.VISITNUM",
          "mandatory": false,
          "name": "VISITNUM",
          "description": "Visit Number",
          "displayFormat": "Z2.",
          "dataType": "integer",
          "length": 2,
          "origin": {
            "type": "Assigned",
            "source": "Sponsor"
          }
        },
        {
          "OID": "IT.XS.VISIT",
          "mandatory": false,
          "name": "VISIT",
          "description": "Visit Name",
          "dataType": "text",
          "length": 8,
          "origin": {
            "type": "Assigned",
            "source": "Sponsor"
          }
        },
        {
          "OID": "IT.XS.VISITDY",
          "mandatory": false,
          "name": "VISITDY",
          "description": "Planned Study Day of Visit",
          "dataType": "integer",
          "length": 3,
          "origin": {
            "type": "Protocol",
            "source": "Sponsor"
          }
        },
        {
          "OID": "IT.XS.XSDTC",
          "mandatory": false,
          "name": "XSDTC",
          "description": "Date/Time of Measurements",
          "dataType": "date",
          "origin": {
            "type": "Collected",
            "source": "Vendor"
          }
        },
        {
          "OID": "IT.XS.XSDY",
          "mandatory": false,
          "name": "XSDY",
          "description": "Study Day of Vital Signs",
          "dataType": "integer",
          "length": 3,
          "method": "MT.XSDY",
          "origin": {
            "type": "Derived",
            "source": "Sponsor"
          }
        }
      ],
      "keySequence": [
        "IT.STUDYID",
        "IT.USUBJID",
        "IT.XS.XSTESTCD",
        "IT.XS.XSDTC",
        "IT.XS.VISITNUM"
      ]
    },
    {
      "OID": "IG.XX",
      "purpose": "Tabulation",
      "name": "XX",
      "description": "X Findings",
      "domain": "XX",
      "structure": "One record per finding per visit per subject",
      "isReferenceData": false,
      "items": [
        {
          "OID": "IT.STUDYID",
          "mandatory": true,
          "name": "STUDYID",
          "description": "Study Identifier",
          "dataType": "text",
          "length": 7,
          "origin": {
            "type": "Protocol",
            "source": "Sponsor"
          }
        },
        {
          "OID": "IT.XX.DOMAIN",
          "mandatory": true,
          "name": "DOMAIN",
          "description": "Domain Abbreviation",
          "dataType": "text",
          "length": 2,
          "codeList": "CL.VS.DOMAIN",
          "origin": {
            "type": "Assigned",
            "source": "Sponsor"
          }
        },
        {
          "OID": "IT.USUBJID",
          "mandatory": true,
          "name": "USUBJID",
          "description": "Unique Subject Identifier",
          "dataType": "text",
          "length": 14,
          "method": "MT.USUBJID",
          "origin": {
            "type": "Derived",
            "source": "Sponsor"
          }
        },
        {
          "OID": "IT.XX.XXSEQ",
          "mandatory": true,
          "name": "XXSEQ",
          "description": "Sequence Number",
          "dataType": "integer",
          "length": 2,
          "method": "MT.SEQ",
          "origin": {
            "type": "Derived",
            "source": "Sponsor"
          }
        },
        {
          "OID": "IT.XX.XXTESTCD",
          "mandatory": true,
          "name": "XXTESTCD",
          "description": "X FindingsTest Short Name",
          "dataType": "text",
          "length": 20,
          "codeList": "CL.XXTESTCD",
          "origin": {
            "type": "Assigned",
            "source": "Sponsor"
          }
        },
        {
          "OID": "IT.XX.XXTEST",
          "mandatory": true,
          "name": "XXTEST",
          "description": "X Findings Test Name",
          "dataType": "text",
          "length": 24,
          "codeList": "CL.XXTEST",
          "origin": {
            "type": "Collected",
            "source": "Vendor"
          }
        },
        {
          "OID": "IT.XX.XXORRES",
          "mandatory": false,
          "name": "XXORRES",
          "description": "Result or Finding in Original Units",
          "dataType": "text",
          "length": 30,
          "origin": {
            "type": "Collected",
            "source": "Vendor"
          }
        },
        {
          "OID": "IT.XX.XXORRESU",
          "mandatory": false,
          "name": "XXORRESU",
          "description": "Original Units",
          "dataType": "text",
          "length": 20,
          "codeList": "CL.XXRESU",
          "origin": {
            "type": "Collected",
            "source": "Vendor"
          }
        },
        {
          "OID": "IT.XX.XXSTRESC",
          "mandatory": true,
          "name": "XXSTRESC",
          "description": "Character Result/Finding in Std Format",
          "dataType": "text",
          "length": 30,
          "method": "MT.XXSTRESC",
          "origin": {
            "type": "Derived",
            "source": "Sponsor"
          }
        },
        {
          "OID": "IT.XX.XXSTRESN",
          "mandatory": false,
          "name": "XXSTRESN",
          "description": "Numeric Result/Finding in Standard Units",
          "displayFormat": "5.1",
          "significantDigits": 1,
          "dataType": "float",
          "length": 5,
          "method": "MT.XXSTRESN",
          "origin": {
            "type": "Derived",
            "source": "Sponsor"
          }
        },
        {
          "OID": "IT.XX.XXSTRESU",
          "mandatory": false,
          "name": "XXSTRESU",
          "description": "Standard Units",
          "dataType": "text",
          "length": 9,
          "codeList": "CL.XXRESU",
          "origin": {
            "type": "Assigned",
            "source": "Sponsor"
          }
        },
        {
          "OID": "IT.XX.XXBLFL",
          "mandatory": false,
          "name": "XXBLFL",
          "description": "Baseline Flag",
          "dataType": "text",
          "length": 1,
          "codeList": "CL.NY",
          "method": "MT.XXBLFL",
          "origin": {
            "type": "Derived",
            "source": "Sponsor"
          }
        },
        {
          "OID": "IT.XX.VISITNUM",
          "mandatory": false,
          "name": "VISITNUM",
          "description": "Visit Number",
          "displayFormat": "Z2.",
          "dataType": "integer",
          "length": 2,
          "origin": {
            "type": "Assigned",
            "source": "Sponsor"
          }
        },
        {
          "OID": "IT.XX.VISIT",
          "mandatory": false,
          "name": "VISIT",
          "description": "Visit Name",
          "dataType": "text",
          "length": 8,
          "origin": {
            "type": "Assigned",
            "source": "Sponsor"
          }
        },
        {
          "OID": "IT.XX.VISITDY",
          "mandatory": false,
          "name": "VISITDY",
          "description": "Planned Study Day of Visit",
          "dataType": "integer",
          "length": 3,
          "origin": {
            "type": "Protocol",
            "source": "Sponsor"
          }
        },
        {
          "OID": "IT.XX.XXDTC",
          "mandatory": false,
          "name": "XXDTC",
          "description": "Date/Time of Measurements",
          "dataType": "date",
          "origin": {
            "type": "Collected",
            "source": "Vendor"
          }
        },
        {
          "OID": "IT.XX.XXDY",
          "mandatory": false,
          "name": "XXDY",
          "description": "Study Day of Vital Signs",
          "dataType": "integer",
          "length": 3,
          "method": "MT.XXDY",
          "origin": {
            "type": "Derived",
            "source": "Sponsor"
          }
        }
      ],
      "keySequence": [
        "IT.STUDYID",
        "IT.USUBJID",
        "IT.XX.XXTESTCD",
        "IT.XX.XXDTC",
        "IT.XX.VISITNUM"
      ]
    },
    {
      "OID": "IG.SUPPDM",
      "purpose": "Tabulation",
      "name": "SUPPDM",
      "description": "Supplemental Qualifiers for DM",
      "coding": [
        {
          "code": "Demographics",
          "codeSystem": "DomainDescription"
        }
      ],
      "domain": "DM",
      "structure": "One record per IDVAR, IDVARVAL, and QNAM value per subject",
      "isReferenceData": false,
      "items": [
        {
          "OID": "IT.STUDYID",
          "mandatory": true,
          "name": "STUDYID",
          "description": "Study Identifier",
          "dataType": "text",
          "length": 7,
          "origin": {
            "type": "Protocol",
            "source": "Sponsor"
          }
        },
        {
          "OID": "IT.RDOMAIN",
          "mandatory": true,
          "name": "RDOMAIN",
          "description": "Related Domain Abbreviation",
          "dataType": "text",
          "length": 2,
          "method": "MT.RDOMAIN",
          "origin": {
            "type": "Derived",
            "source": "Sponsor"
          }
        },
        {
          "OID": "IT.USUBJID",
          "mandatory": true,
          "name": "USUBJID",
          "description": "Unique Subject Identifier",
          "dataType": "text",
          "length": 14,
          "method": "MT.USUBJID",
          "origin": {
            "type": "Derived",
            "source": "Sponsor"
          }
        },
        {
          "OID": "IT.SUPPDM.IDVAR",
          "mandatory": false,
          "name": "IDVAR",
          "description": "Identifying Variable",
          "dataType": "text",
          "length": 1,
          "origin": {
            "type": "Assigned",
            "source": "Sponsor"
          }
        },
        {
          "OID": "IT.SUPPDM.IDVARVAL",
          "mandatory": false,
          "name": "IDVARVAL",
          "description": "Identifying Variable Value",
          "dataType": "text",
          "length": 1,
          "origin": {
            "type": "Assigned",
            "source": "Sponsor"
          }
        },
        {
          "OID": "IT.SUPPDM.QNAM",
          "mandatory": true,
          "name": "QNAM",
          "description": "Qualifier Variable Name",
          "dataType": "text",
          "length": 8,
          "origin": {
            "type": "Assigned",
            "source": "Sponsor"
          }
        },
        {
          "OID": "IT.SUPPDM.QLABEL",
          "mandatory": true,
          "name": "QLABEL",
          "description": "Qualifier Variable Label",
          "dataType": "text",
          "length": 26,
          "origin": {
            "type": "Assigned",
            "source": "Sponsor"
          }
        },
        {
          "OID": "IT.SUPPDM.QVAL",
          "mandatory": true,
          "name": "QVAL",
          "description": "Data Value",
          "dataType": "text",
          "length": 200
        },
        {
          "OID": "IT.SUPPDM.QORIG",
          "mandatory": true,
          "name": "QORIG",
          "description": "Origin",
          "dataType": "text",
          "length": 11,
          "origin": {
            "type": "Assigned",
            "source": "Sponsor"
          }
        },
        {
          "OID": "IT.SUPPDM.QEVAL",
          "mandatory": false,
          "name": "QEVAL",
          "description": "Evaluator",
          "dataType": "text",
          "length": 30,
          "origin": {
            "type": "Assigned",
            "source": "Sponsor"
          }
        }
      ],
      "keySequence": [
        "IT.STUDYID",
        "IT.RDOMAIN",
        "IT.USUBJID",
        "IT.SUPPDM.IDVAR",
        "IT.SUPPDM.IDVARVAL",
        "IT.SUPPDM.QNAM"
      ],
      "slices": [
        {
          "OID": "VL.SUPPDM.QVAL",
          "name": "VL_SUPPDM_QVAL",
          "type": "ValueList",
          "items": [
            {
              "OID": "IT.SUPPDM.QVAL.RACE1",
              "mandatory": false,
              "name": "RACE1",
              "description": "Race 1",
              "role": "Record Qualifier",
              "dataType": "text",
              "length": 41,
              "codeList": "CL.RACE",
              "method": "MT.RACE",
              "applicableWhen": [
                "WC.SUPPDM.QNAM.RACE1"
              ],
              "origin": {
                "type": "Collected",
                "source": "Investigator",
                "documents": [
                  {
                    "OID": "LF.acrf",
                    "leafID": "LF.acrf"
                  }
                ]
              }
            },
            {
              "OID": "IT.SUPPDM.QVAL.RACE2",
              "mandatory": false,
              "name": "RACE2",
              "description": "Race 2",
              "role": "Record Qualifier",
              "dataType": "text",
              "length": 41,
              "codeList": "CL.RACE",
              "method": "MT.RACE",
              "applicableWhen": [
                "WC.SUPPDM.QNAM.RACE2"
              ],
              "origin": {
                "type": "Collected",
                "source": "Investigator",
                "documents": [
                  {
                    "OID": "LF.acrf",
                    "leafID": "LF.acrf"
                  }
                ]
              }
            },
            {
              "OID": "IT.SUPPDM.QVAL.RACE3",
              "mandatory": false,
              "name": "RACE3",
              "description": "Race 3",
              "role": "Record Qualifier",
              "dataType": "text",
              "length": 41,
              "codeList": "CL.RACE",
              "method": "MT.RACE",
              "applicableWhen": [
                "WC.SUPPDM.QNAM.RACE3"
              ],
              "origin": {
                "type": "Collected",
                "source": "Investigator",
                "documents": [
                  {
                    "OID": "LF.acrf",
                    "leafID": "LF.acrf"
                  }
                ]
              }
            },
            {
              "OID": "IT.SUPPDM.QVAL.RAND",
              "mandatory": false,
              "name": "RAND",
              "description": "Randomized Population Flag",
              "role": "Record Qualifier",
              "dataType": "text",
              "length": 1,
              "codeList": "CL.NY",
              "applicableWhen": [
                "WC.SUPPDM.QNAM.RAND"
              ],
              "origin": {
                "type": "Collected",
                "source": "Investigator",
                "documents": [
                  {
                    "OID": "LF.acrf",
                    "leafID": "LF.acrf"
                  }
                ]
              }
            },
            {
              "OID": "IT.SUPPDM.QVAL.RANDNO",
              "mandatory": false,
              "name": "RANDNO",
              "description": "Randomization Number",
              "role": "Record Qualifier",
              "dataType": "text",
              "length": 4,
              "applicableWhen": [
                "WC.SUPPDM.QNAM.RANDNO"
              ],
              "origin": {
                "type": "Collected",
                "source": "Investigator",
                "documents": [
                  {
                    "OID": "LF.acrf",
                    "leafID": "LF.acrf"
                  }
                ]
              }
            },
            {
              "OID": "IT.SUPPDM.QVAL.SAFETY",
              "mandatory": false,
              "name": "SAFETY",
              "description": "Safety Population Flag",
              "role": "Record Qualifier",
              "dataType": "text",
              "length": 1,
              "codeList": "CL.NY",
              "method": "MT.SAFETY",
              "applicableWhen": [
                "WC.SUPPDM.QNAM.SAFETY"
              ],
              "origin": {
                "type": "Derived",
                "source": "Sponsor"
              }
            }
          ]
        }
      ]
    },
    {
      "OID": "IG.SUPPVS",
      "purpose": "Tabulation",
      "name": "SUPPVS",
      "description": "Supplemental Qualifiers for VS",
      "coding": [
        {
          "code": "Vital Signs",
          "codeSystem": "DomainDescription"
        }
      ],
      "domain": "VS",
      "structure": "One record per IDVAR, IDVARVAL, and QNAM value per subject",
      "isReferenceData": false,
      "items": [
        {
          "OID": "IT.STUDYID",
          "mandatory": true,
          "name": "STUDYID",
          "description": "Study Identifier",
          "dataType": "text",
          "length": 7,
          "origin": {
            "type": "Protocol",
            "source": "Sponsor"
          }
        },
        {
          "OID": "IT.RDOMAIN",
          "mandatory": true,
          "name": "RDOMAIN",
          "description": "Related Domain Abbreviation",
          "dataType": "text",
          "length": 2,
          "method": "MT.RDOMAIN",
          "origin": {
            "type": "Derived",
            "source": "Sponsor"
          }
        },
        {
          "OID": "IT.USUBJID",
          "mandatory": true,
          "name": "USUBJID",
          "description": "Unique Subject Identifier",
          "dataType": "text",
          "length": 14,
          "method": "MT.USUBJID",
          "origin": {
            "type": "Derived",
            "source": "Sponsor"
          }
        },
        {
          "OID": "IT.SUPPVS.IDVAR",
          "mandatory": false,
          "name": "IDVAR",
          "description": "Identifying Variable",
          "dataType": "text",
          "length": 5,
          "origin": {
            "type": "Assigned",
            "source": "Sponsor"
          }
        },
        {
          "OID": "IT.SUPPVS.IDVARVAL",
          "mandatory": false,
          "name": "IDVARVAL",
          "description": "Identifying Variable Value",
          "dataType": "text",
          "length": 2,
          "origin": {
            "type": "Assigned",
            "source": "Sponsor"
          }
        },
        {
          "OID": "IT.SUPPVS.QNAM",
          "mandatory": true,
          "name": "QNAM",
          "description": "Qualifier Variable Name",
          "dataType": "text",
          "length": 7,
          "origin": {
            "type": "Assigned",
            "source": "Sponsor"
          }
        },
        {
          "OID": "IT.SUPPVS.QLABEL",
          "mandatory": true,
          "name": "QLABEL",
          "description": "Qualifier Variable Label",
          "dataType": "text",
          "length": 36,
          "origin": {
            "type": "Assigned",
            "source": "Sponsor"
          }
        },
        {
          "OID": "IT.SUPPVS.QVAL",
          "mandatory": true,
          "name": "QVAL",
          "description": "Data Value",
          "dataType": "text",
          "length": 2
        },
        {
          "OID": "IT.SUPPVS.QORIG",
          "mandatory": true,
          "name": "QORIG",
          "description": "Origin",
          "dataType": "text",
          "length": 7,
          "origin": {
            "type": "Assigned",
            "source": "Sponsor"
          }
        },
        {
          "OID": "IT.SUPPVS.QEVAL",
          "mandatory": false,
          "name": "QEVAL",
          "description": "Evaluator",
          "dataType": "text",
          "length": 30,
          "origin": {
            "type": "Assigned",
            "source": "Sponsor"
          }
        }
      ],
      "keySequence": [
        "IT.STUDYID",
        "IT.RDOMAIN",
        "IT.USUBJID",
        "IT.SUPPVS.IDVAR",
        "IT.SUPPVS.IDVARVAL",
        "IT.SUPPVS.QNAM"
      ],
      "slices": [
        {
          "OID": "VL.SUPPVS.QVAL",
          "name": "VL_SUPPVS_QVAL",
          "type": "ValueList",
          "items": [
            {
              "OID": "IT.SUPPVS.QVAL.VSCLSIG",
              "mandatory": false,
              "name": "VSCLSIG",
              "description": "Clinically Significant",
              "role": "Record Qualifier",
              "dataType": "text",
              "length": 1,
              "codeList": "CL.NY",
              "method": "MT.CLSIG",
              "applicableWhen": [
                "WC.SUPPVS.QNAM.VSCLSIG"
              ],
              "origin": {
                "type": "Derived",
                "source": "Sponsor"
              }
            }
          ]
        }
      ]
    }
  ],
  "conditions": [
    {
      "OID": "COND.LB.LBTESTCD.SET1.LBSPEC.BLOOD",
      "rangeChecks": [
        {
          "comparator": "IN",
          "checkValues": [
            "BILI",
            "GLUC"
          ],
          "item": "IT.LB.LBTESTCD",
          "softHard": "Soft"
        },
        {
          "comparator": "EQ",
          "checkValues": [
            "BLOOD"
          ],
          "item": "IT.LB.LBSPEC",
          "softHard": "Soft"
        }
      ]
    },
    {
      "OID": "COND.LB.LBTESTCD.SET2.LBSPEC.BLOOD",
      "rangeChecks": [
        {
          "comparator": "IN",
          "checkValues": [
            "BUN",
            "HGB",
            "LYM"
          ],
          "item": "IT.LB.LBTESTCD",
          "softHard": "Soft"
        },
        {
          "comparator": "EQ",
          "checkValues": [
            "BLOOD"
          ],
          "item": "IT.LB.LBSPEC",
          "softHard": "Soft"
        }
      ]
    },
    {
      "OID": "COND.LB.LBTESTCD.HCT.LBSPEC.BLOOD.VENDOR",
      "rangeChecks": [
        {
          "comparator": "EQ",
          "checkValues": [
            "HCT"
          ],
          "item": "IT.LB.LBTESTCD",
          "softHard": "Soft"
        },
        {
          "comparator": "EQ",
          "checkValues": [
            "BLOOD"
          ],
          "item": "IT.LB.LBSPEC",
          "softHard": "Soft"
        },
        {
          "comparator": "NE",
          "checkValues": [
            "LOCAL LAB"
          ],
          "item": "IT.LB.LBNAM",
          "softHard": "Soft"
        }
      ]
    },
    {
      "OID": "COND.LB.LBTESTCD.HCT.LBSPEC.BLOOD.CRF",
      "rangeChecks": [
        {
          "comparator": "EQ",
          "checkValues": [
            "HCT"
          ],
          "item": "IT.LB.LBTESTCD",
          "softHard": "Soft"
        },
        {
          "comparator": "EQ",
          "checkValues": [
            "BLOOD"
          ],
          "item": "IT.LB.LBSPEC",
          "softHard": "Soft"
        },
        {
          "comparator": "EQ",
          "checkValues": [
            "LOCAL LAB"
          ],
          "item": "IT.LB.LBNAM",
          "softHard": "Soft"
        }
      ]
    },
    {
      "OID": "COND.LB.LBTESTCD.SET3.LBSPEC.URINE",
      "rangeChecks": [
        {
          "comparator": "IN",
          "checkValues": [
            "GLUC",
            "OCCBLD"
          ],
          "item": "IT.LB.LBTESTCD",
          "softHard": "Soft"
        },
        {
          "comparator": "EQ",
          "checkValues": [
            "URINE"
          ],
          "item": "IT.LB.LBSPEC",
          "softHard": "Soft"
        }
      ]
    },
    {
      "OID": "COND.LB.LBTESTCD.PH.LBSPEC.URINE",
      "rangeChecks": [
        {
          "comparator": "EQ",
          "checkValues": [
            "PH"
          ],
          "item": "IT.LB.LBTESTCD",
          "softHard": "Soft"
        },
        {
          "comparator": "EQ",
          "checkValues": [
            "URINE"
          ],
          "item": "IT.LB.LBSPEC",
          "softHard": "Soft"
        }
      ]
    },
    {
      "OID": "COND.LB.LBTESTCD.VITB12.LBSPEC.SERUM",
      "rangeChecks": [
        {
          "comparator": "EQ",
          "checkValues": [
            "VITB12"
          ],
          "item": "IT.LB.LBTESTCD",
          "softHard": "Soft"
        },
        {
          "comparator": "EQ",
          "checkValues": [
            "SERUM"
          ],
          "item": "IT.LB.LBSPEC",
          "softHard": "Soft"
        }
      ]
    },
    {
      "OID": "COND.LB.LBTESTCD.VITB9.LBSPEC.BLOOD",
      "rangeChecks": [
        {
          "comparator": "EQ",
          "checkValues": [
            "VITB9"
          ],
          "item": "IT.LB.LBTESTCD",
          "softHard": "Soft"
        },
        {
          "comparator": "EQ",
          "checkValues": [
            "BLOOD"
          ],
          "item": "IT.LB.LBSPEC",
          "softHard": "Soft"
        }
      ]
    },
    {
      "OID": "COND.SUPPDM.QNAM.RACE1",
      "rangeChecks": [
        {
          "comparator": "EQ",
          "checkValues": [
            "RACE1"
          ],
          "item": "IT.SUPPDM.QNAM",
          "softHard": "Soft"
        }
      ]
    },
    {
      "OID": "COND.SUPPDM.QNAM.RACE2",
      "rangeChecks": [
        {
          "comparator": "EQ",
          "checkValues": [
            "RACE2"
          ],
          "item": "IT.SUPPDM.QNAM",
          "softHard": "Soft"
        }
      ]
    },
    {
      "OID": "COND.SUPPDM.QNAM.RACE3",
      "rangeChecks": [
        {
          "comparator": "EQ",
          "checkValues": [
            "RACE3"
          ],
          "item": "IT.SUPPDM.QNAM",
          "softHard": "Soft"
        }
      ]
    },
    {
      "OID": "COND.SUPPDM.QNAM.RAND",
      "rangeChecks": [
        {
          "comparator": "EQ",
          "checkValues": [
            "RAND"
          ],
          "item": "IT.SUPPDM.QNAM",
          "softHard": "Soft"
        }
      ]
    },
    {
      "OID": "COND.SUPPDM.QNAM.RANDNO",
      "rangeChecks": [
        {
          "comparator": "EQ",
          "checkValues": [
            "RANDNO"
          ],
          "item": "IT.SUPPDM.QNAM",
          "softHard": "Soft"
        }
      ]
    },
    {
      "OID": "COND.SUPPDM.QNAM.SAFETY",
      "rangeChecks": [
        {
          "comparator": "EQ",
          "checkValues": [
            "SAFETY"
          ],
          "item": "IT.SUPPDM.QNAM",
          "softHard": "Soft"
        }
      ]
    },
    {
      "OID": "COND.SUPPVS.QNAM.VSCLSIG",
      "rangeChecks": [
        {
          "comparator": "EQ",
          "checkValues": [
            "VSCLSIG"
          ],
          "item": "IT.SUPPVS.QNAM",
          "softHard": "Soft"
        }
      ]
    },
    {
      "OID": "COND.TS.TSPARMCD.AGEMAX",
      "rangeChecks": [
        {
          "comparator": "EQ",
          "checkValues": [
            "AGEMAX"
          ],
          "item": "IT.TS.TSPARMCD",
          "softHard": "Soft"
        }
      ]
    },
    {
      "OID": "COND.TS.TSPARMCD.AGEMIN",
      "rangeChecks": [
        {
          "comparator": "EQ",
          "checkValues": [
            "AGEMIN"
          ],
          "item": "IT.TS.TSPARMCD",
          "softHard": "Soft"
        }
      ]
    },
    {
      "OID": "COND.TS.TSPARMCD.AGEU",
      "rangeChecks": [
        {
          "comparator": "EQ",
          "checkValues": [
            "AGEU"
          ],
          "item": "IT.TS.TSPARMCD",
          "softHard": "Soft"
        }
      ]
    },
    {
      "OID": "COND.TS.TSPARMCD.DOSE",
      "rangeChecks": [
        {
          "comparator": "EQ",
          "checkValues": [
            "DOSE"
          ],
          "item": "IT.TS.TSPARMCD",
          "softHard": "Soft"
        }
      ]
    },
    {
      "OID": "COND.TS.TSPARMCD.FCNTRY",
      "rangeChecks": [
        {
          "comparator": "EQ",
          "checkValues": [
            "FCNTRY"
          ],
          "item": "IT.TS.TSPARMCD",
          "softHard": "Soft"
        }
      ]
    },
    {
      "OID": "COND.TS.TSPARMCD.PLANSUB",
      "rangeChecks": [
        {
          "comparator": "EQ",
          "checkValues": [
            "PLANSUB"
          ],
          "item": "IT.TS.TSPARMCD",
          "softHard": "Soft"
        }
      ]
    },
    {
      "OID": "COND.VS.VSTESTCD.DIABP",
      "rangeChecks": [
        {
          "comparator": "EQ",
          "checkValues": [
            "DIABP"
          ],
          "item": "IT.VS.VSTESTCD",
          "softHard": "Soft"
        }
      ]
    },
    {
      "OID": "COND.VS.VSTESTCD.FRMSIZE",
      "rangeChecks": [
        {
          "comparator": "EQ",
          "checkValues": [
            "FRMSIZE"
          ],
          "item": "IT.VS.VSTESTCD",
          "softHard": "Soft"
        }
      ]
    },
    {
      "OID": "COND.VS.VSTESTCD.HEIGHT",
      "rangeChecks": [
        {
          "comparator": "EQ",
          "checkValues": [
            "HEIGHT"
          ],
          "item": "IT.VS.VSTESTCD",
          "softHard": "Soft"
        }
      ]
    },
    {
      "OID": "COND.VS.VSTESTCD.PULSE",
      "rangeChecks": [
        {
          "comparator": "EQ",
          "checkValues": [
            "PULSE"
          ],
          "item": "IT.VS.VSTESTCD",
          "softHard": "Soft"
        }
      ]
    },
    {
      "OID": "COND.VS.VSTESTCD.SYSBP",
      "rangeChecks": [
        {
          "comparator": "EQ",
          "checkValues": [
            "SYSBP"
          ],
          "item": "IT.VS.VSTESTCD",
          "softHard": "Soft"
        }
      ]
    },
    {
      "OID": "COND.VS.VSTESTCD.WEIGHT",
      "rangeChecks": [
        {
          "comparator": "EQ",
          "checkValues": [
            "WEIGHT"
          ],
          "item": "IT.VS.VSTESTCD",
          "softHard": "Soft"
        }
      ]
    },
    {
      "OID": "COND.VS.VSTESTCD.BMI",
      "rangeChecks": [
        {
          "comparator": "EQ",
          "checkValues": [
            "BMI"
          ],
          "item": "IT.VS.VSTESTCD",
          "softHard": "Soft"
        }
      ]
    },
    {
      "OID": "COND.VS.VSTESTCD.HEIGHT.DM.COUNTRY.CMETRIC",
      "rangeChecks": [
        {
          "comparator": "EQ",
          "checkValues": [
            "HEIGHT"
          ],
          "item": "IT.VS.VSTESTCD",
          "softHard": "Soft"
        },
        {
          "comparator": "IN",
          "checkValues": [
            "CAN",
            "MEX"
          ],
          "item": "IT.DM.COUNTRY",
          "softHard": "Soft"
        }
      ]
    },
    {
      "OID": "COND.VS.VSTESTCD.HEIGHT.DM.COUNTRY.CNMETRIC",
      "rangeChecks": [
        {
          "comparator": "EQ",
          "checkValues": [
            "HEIGHT"
          ],
          "item": "IT.VS.VSTESTCD",
          "softHard": "Soft"
        },
        {
          "comparator": "EQ",
          "checkValues": [
            "USA"
          ],
          "item": "IT.DM.COUNTRY",
          "softHard": "Soft"
        }
      ]
    },
    {
      "OID": "COND.VS.VSTESTCD.WEIGHT.DM.COUNTRY.CMETRIC",
      "rangeChecks": [
        {
          "comparator": "EQ",
          "checkValues": [
            "WEIGHT"
          ],
          "item": "IT.VS.VSTESTCD",
          "softHard": "Soft"
        },
        {
          "comparator": "IN",
          "checkValues": [
            "CAN",
            "MEX"
          ],
          "item": "IT.DM.COUNTRY",
          "softHard": "Soft"
        }
      ]
    },
    {
      "OID": "COND.VS.VSTESTCD.WEIGHT.DM.COUNTRY.CNMETRIC",
      "rangeChecks": [
        {
          "comparator": "EQ",
          "checkValues": [
            "WEIGHT"
          ],
          "item": "IT.VS.VSTESTCD",
          "softHard": "Soft"
        },
        {
          "comparator": "EQ",
          "checkValues": [
            "USA"
          ],
          "item": "IT.DM.COUNTRY",
          "softHard": "Soft"
        }
      ]
    }
  ],
  "whereClauses": [
    {
      "OID": "WC.LB.LBTESTCD.SET1.LBSPEC.BLOOD",
      "conditions": [
        "COND.LB.LBTESTCD.SET1.LBSPEC.BLOOD"
      ]
    },
    {
      "OID": "WC.LB.LBTESTCD.SET2.LBSPEC.BLOOD",
      "conditions": [
        "COND.LB.LBTESTCD.SET2.LBSPEC.BLOOD"
      ]
    },
    {
      "OID": "WC.LB.LBTESTCD.HCT.LBSPEC.BLOOD.VENDOR",
      "conditions": [
        "COND.LB.LBTESTCD.HCT.LBSPEC.BLOOD.VENDOR"
      ]
    },
    {
      "OID": "WC.LB.LBTESTCD.HCT.LBSPEC.BLOOD.CRF",
      "conditions": [
        "COND.LB.LBTESTCD.HCT.LBSPEC.BLOOD.CRF"
      ]
    },
    {
      "OID": "WC.LB.LBTESTCD.SET3.LBSPEC.URINE",
      "conditions": [
        "COND.LB.LBTESTCD.SET3.LBSPEC.URINE"
      ]
    },
    {
      "OID": "WC.LB.LBTESTCD.PH.LBSPEC.URINE",
      "conditions": [
        "COND.LB.LBTESTCD.PH.LBSPEC.URINE"
      ]
    },
    {
      "OID": "WC.LB.LBTESTCD.VITB12.LBSPEC.SERUM",
      "conditions": [
        "COND.LB.LBTESTCD.VITB12.LBSPEC.SERUM"
      ]
    },
    {
      "OID": "WC.LB.LBTESTCD.VITB9.LBSPEC.BLOOD",
      "conditions": [
        "COND.LB.LBTESTCD.VITB9.LBSPEC.BLOOD"
      ]
    },
    {
      "OID": "WC.SUPPDM.QNAM.RACE1",
      "conditions": [
        "COND.SUPPDM.QNAM.RACE1"
      ]
    },
    {
      "OID": "WC.SUPPDM.QNAM.RACE2",
      "conditions": [
        "COND.SUPPDM.QNAM.RACE2"
      ]
    },
    {
      "OID": "WC.SUPPDM.QNAM.RACE3",
      "conditions": [
        "COND.SUPPDM.QNAM.RACE3"
      ]
    },
    {
      "OID": "WC.SUPPDM.QNAM.RAND",
      "conditions": [
        "COND.SUPPDM.QNAM.RAND"
      ]
    },
    {
      "OID": "WC.SUPPDM.QNAM.RANDNO",
      "conditions": [
        "COND.SUPPDM.QNAM.RANDNO"
      ]
    },
    {
      "OID": "WC.SUPPDM.QNAM.SAFETY",
      "conditions": [
        "COND.SUPPDM.QNAM.SAFETY"
      ]
    },
    {
      "OID": "WC.SUPPVS.QNAM.VSCLSIG",
      "conditions": [
        "COND.SUPPVS.QNAM.VSCLSIG"
      ]
    },
    {
      "OID": "WC.TS.TSPARMCD.AGEMAX",
      "conditions": [
        "COND.TS.TSPARMCD.AGEMAX"
      ]
    },
    {
      "OID": "WC.TS.TSPARMCD.AGEMIN",
      "conditions": [
        "COND.TS.TSPARMCD.AGEMIN"
      ]
    },
    {
      "OID": "WC.TS.TSPARMCD.AGEU",
      "conditions": [
        "COND.TS.TSPARMCD.AGEU"
      ]
    },
    {
      "OID": "WC.TS.TSPARMCD.DOSE",
      "conditions": [
        "COND.TS.TSPARMCD.DOSE"
      ]
    },
    {
      "OID": "WC.TS.TSPARMCD.FCNTRY",
      "conditions": [
        "COND.TS.TSPARMCD.FCNTRY"
      ]
    },
    {
      "OID": "WC.TS.TSPARMCD.PLANSUB",
      "conditions": [
        "COND.TS.TSPARMCD.PLANSUB"
      ]
    },
    {
      "OID": "WC.VS.VSTESTCD.DIABP",
      "conditions": [
        "COND.VS.VSTESTCD.DIABP"
      ]
    },
    {
      "OID": "WC.VS.VSTESTCD.FRMSIZE",
      "conditions": [
        "COND.VS.VSTESTCD.FRMSIZE"
      ]
    },
    {
      "OID": "WC.VS.VSTESTCD.HEIGHT",
      "conditions": [
        "COND.VS.VSTESTCD.HEIGHT"
      ]
    },
    {
      "OID": "WC.VS.VSTESTCD.PULSE",
      "conditions": [
        "COND.VS.VSTESTCD.PULSE"
      ]
    },
    {
      "OID": "WC.VS.VSTESTCD.SYSBP",
      "conditions": [
        "COND.VS.VSTESTCD.SYSBP"
      ]
    },
    {
      "OID": "WC.VS.VSTESTCD.WEIGHT",
      "conditions": [
        "COND.VS.VSTESTCD.WEIGHT"
      ]
    },
    {
      "OID": "WC.VS.VSTESTCD.BMI",
      "conditions": [
        "COND.VS.VSTESTCD.BMI"
      ]
    },
    {
      "OID": "WC.VS.VSTESTCD.HEIGHT.DM.COUNTRY.CMETRIC",
      "conditions": [
        "COND.VS.VSTESTCD.HEIGHT.DM.COUNTRY.CMETRIC"
      ]
    },
    {
      "OID": "WC.VS.VSTESTCD.HEIGHT.DM.COUNTRY.CNMETRIC",
      "conditions": [
        "COND.VS.VSTESTCD.HEIGHT.DM.COUNTRY.CNMETRIC"
      ]
    },
    {
      "OID": "WC.VS.VSTESTCD.WEIGHT.DM.COUNTRY.CMETRIC",
      "conditions": [
        "COND.VS.VSTESTCD.WEIGHT.DM.COUNTRY.CMETRIC"
      ]
    },
    {
      "OID": "WC.VS.VSTESTCD.WEIGHT.DM.COUNTRY.CNMETRIC",
      "conditions": [
        "COND.VS.VSTESTCD.WEIGHT.DM.COUNTRY.CNMETRIC"
      ]
    }
  ],
  "methods": [
    {
      "OID": "MT.AGE",
      "name": "Algorithm to derive AGE",
      "description": "Age at Screening Date (Screening Date - Birth date).\n\nFor the complete algorithm see the referenced external document.",
      "type": "Computation",
      "documents": [
        {
          "OID": "LF.ComplexAlgorithms",
          "leafID": "LF.ComplexAlgorithms"
        }
      ]
    },
    {
      "OID": "MT.BMISC",
      "name": "Algorithm to derive BMISC",
      "description": "character value of VSSTRESN",
      "type": "Computation",
      "expressions": [
        {
          "OID": "MT.BMISC.FE.1",
          "context": " SAS 9.0 or later as a macro call. Macro developed as a standard macro that returns a value to be assigned as part of a data step assignment or proc sql select and update statements. Notes: 1) need to be able to specify more information about the context of a method, the method version and corresponding input parameters. For ODMv1.3.2 / Define-XML 2.1 free-text. 2) As an example, included a version of the code handled on the macro name as it can be defined by the user somehwere in the metadata definition for the method to be used. ",
          "expression": "%convert_to_character_versionx(numeric_value=bmi_numeric_value,length=bmi_defined_lenght,sd=bmi_defined_sd)"
        },
        {
          "OID": "MT.BMISC.FE.2",
          "context": "SAS 9.0 or later using a SAS Base function, asuming no restriction on length and decimal places ",
          "expression": "putc(bmi_numeric_value,best.)"
        },
        {
          "OID": "MT.BMISC.FE.3",
          "context": "R version xyz, using a generic method asuming no restriction on length and decimal places ",
          "expression": "toString(bmi_numeric_value, witdth=NULL)"
        }
      ]
    },
    {
      "OID": "MT.BMISN",
      "name": "Algorithm to derive BMISN",
      "description": "round((VSSTRESN for weight/ (VSSTRESN for height / 100)^2), .01).\n\nNote: height and weight at the closest visit collected.",
      "type": "Computation",
      "expressions": [
        {
          "OID": "MT.BMISN.FE.1",
          "context": " SAS 9.0 or later as a macro call. Macro developed as a standard macro that returns a value to be assigned as part of a data step assignment or proc sql select and update statements. Notes: 1) need to be able to specify more information about the context of a method, the method version and corresponding input parameters. For ODMv1.3.2 / Define-XML 2.1 free-text. 2) As an example, included a version of the code handled on the macro name as it can be defined by the user somehwere in the metadata definition for the method to be used. ",
          "expression": "%bmisn_versionx(weight=retrieved_weight_closest_visit,height=retrieved_height_closest_visit)"
        },
        {
          "OID": "MT.BMISN.FE.2",
          "context": " SAS 9.0 or later as a macro call. Macro developed as a standard macro that returns a value to be assigned as part of a data step assignment or proc sql select and update statements. Notes: 1) need to be able to specify more information about the context of a method, the method version and corresponding input parameters. For ODMv1.3.2 / Define-XML 2.1 free-text. 2) As an example, included a version of the code handled on the macro name as it can be defined by the user somehwere in the metadata definition for the method to be used. ",
          "expression": "%bmisn_versiony(weight=retrieved_weight_closest_visit,height=retrieved_height_closest_visit)"
        }
      ]
    },
    {
      "OID": "MT.CLSIG",
      "name": "Algorithm to derive CLSIG",
      "description": "Only created if value qualifies as potentially clinically significant high or low based on the high and low ranges specified in the Statistical Analysis Plan.",
      "type": "Computation"
    },
    {
      "OID": "MT.ECENDY",
      "name": "Algorithm to derive ECENDY",
      "description": "ECENDY = ECENDTC-RFSTDTC+1 if ECENDTC is on or after RFSTDTC. \nECENDTC - RFSTDTC if ECENDTC precedes RFSTDTC.",
      "type": "Computation"
    },
    {
      "OID": "MT.EXDOSE",
      "name": "Algorithm to derive EXDOSE",
      "description": "If ARMCD=WONDER10 then EXDOSE = Number of Tablets per Day (QVAL where QNAM=SMNO) * 10.\nIf ARMCD=WONDER20 then EXDOSE = Number of Tablets per Day (QVAL where QNAM=SMNO) * 20.\nIf ARMCD=PLACEBO then EXDOSE = 0.",
      "type": "Computation"
    },
    {
      "OID": "MT.EXDOSU",
      "name": "Algorithm to derive EXDOSU",
      "description": "Derived from ARM, ARMCD - equal to mg",
      "type": "Computation"
    },
    {
      "OID": "MT.EXENDY",
      "name": "Algorithm to derive EXENDY",
      "description": "EXENDY = EXENDTC-RFSTDTC+1 if EXENDTC is on or after RFSTDTC.\nEXENDTC - RFSTDTC if EXENDTC precedes RFSTDTC.",
      "type": "Computation"
    },
    {
      "OID": "MT.EXSTDY",
      "name": "Algorithm to derive EXSTDY",
      "description": "EXSTDY = EXSTDTC - RFSTDTC+1 if EXSTDTC is on or after RFSTDTC.\nEXSTDTC - RFSTDTC if EXSTDTC precedes RFSTDTC.",
      "type": "Computation"
    },
    {
      "OID": "MT.EXTRT",
      "name": "Algorithm to derive EXTRT",
      "description": "Derived from ARM, ARMCD",
      "type": "Computation"
    },
    {
      "OID": "MT.LBBLFL",
      "name": "Algorithm to derive LBBLFL",
      "description": "Safety subjects only: LBBLFL = \"Y\" for last record with non Null LBORRES on or before the first dose date (RFSTDTC).\nNull otherwise.",
      "type": "Computation"
    },
    {
      "OID": "MT.LBDY",
      "name": "Algorithm to derive LBDY",
      "description": "LBDY = LBDTC-RFSTDTC+1 if LBDTC is on or after RFSTDTC. LBDTC - RFSTDTC if LBDTC precedes RFSTDTC.",
      "type": "Computation"
    },
    {
      "OID": "MT.LBNRIND",
      "name": "Algorithm to derive LBNRIND",
      "description": "Reference Range Indicator based upon standard results and ranges.",
      "type": "Computation"
    },
    {
      "OID": "MT.RACE",
      "name": "Algorithm to assign RACE",
      "description": "Selected value converted to upper case to match CT.",
      "type": "Computation"
    },
    {
      "OID": "MT.RDOMAIN",
      "name": "Algorithm to derive RDOMAIN",
      "description": "Domain abbreviation from where data originated.",
      "type": "Computation"
    },
    {
      "OID": "MT.RFENDTC",
      "name": "Algorithm to derive RFENDTC",
      "description": "RFENDTC = termination date, for safety subjects.\nNull for screen failures.",
      "type": "Computation"
    },
    {
      "OID": "MT.RFSTDTC",
      "name": "Algorithm to derive RFSTDTC",
      "description": "RFSTDTC = first date/time of study drug, for safety subject.\nNull for screen failures.",
      "type": "Computation"
    },
    {
      "OID": "MT.SAFETY",
      "name": "Algorithm to derive the SAFETY population flag",
      "description": "SAFETY = \"Y\" for randomized subjects who took at least one dose study medication. Null otherwise.",
      "type": "Computation"
    },
    {
      "OID": "MT.SEQ",
      "name": "Algorithm to derive SEQ",
      "description": "Sequential number identifying records within each USUBJID in the domain.",
      "type": "Computation"
    },
    {
      "OID": "MT.TSSEQ",
      "name": "Algorithm to derive TSSEQ",
      "description": "Sequential number identifying records within each TSPARM in the domain.",
      "type": "Computation"
    },
    {
      "OID": "MT.USUBJID",
      "name": "Algorithm to derive USUBJID",
      "description": "Concatenation of STUDYID and SUBJID",
      "type": "Computation"
    },
    {
      "OID": "MT.VSBLFL",
      "name": "Algorithm to derive VSBLFL",
      "description": "Safety subjects only: VSBLFL = \"Y\" for last record with non Null VSORRES on or before the first dose date (RFSTDTC).\nNull otherwise.",
      "type": "Computation"
    },
    {
      "OID": "MT.VSDY",
      "name": "Algorithm to derive VSDY",
      "description": "VSDY = VSDTC-RFSTDTC+1 if VSDTC is on or after RFSTDTC. VSDTC - RFSTDTC if VSDTC precedes RFSTDTC.",
      "type": "Computation"
    },
    {
      "OID": "MT.VSSTRESC",
      "name": "Algorithm to derive VSSTRESC",
      "description": "Data collected in non-standard units (i.e. lbs, inches) is converted using standard conversion factors to standard units (kg, cm).",
      "type": "Computation"
    },
    {
      "OID": "MT.VSSTRESN",
      "name": "Algorithm to derive VSSTRESN",
      "description": "VSSTRESN = numeric value of VSSTRESC, when VSSTRESC contains numeric data.",
      "type": "Computation"
    },
    {
      "OID": "MT.XSBLFL",
      "name": "Algorithm to derive XSBLFL",
      "description": "Safety subjects only: XSBLFL = \"Y\" for last record with non Null XSORRES on or before the first dose date (RFSTDTC).\nNull otherwise.",
      "type": "Computation"
    },
    {
      "OID": "MT.XSDY",
      "name": "Algorithm to derive XSDY",
      "description": "XSDY = XSDTC-RFSTDTC+1 if XSDTC is on or after RFSTDTC. XSDTC - RFSTDTC if XSDTC precedes RFSTDTC.",
      "type": "Computation"
    },
    {
      "OID": "MT.XSSTRESC",
      "name": "Algorithm to derive XSSTRESC",
      "description": "Data collected in non-standard units (i.e. lbs, inches) is converted using standard conversion factors to standard units (kg, cm).\n\nBMI is calculated by the EDC system (operationally derived) as follows:\n round((XSSTRESN for weight/ (XSSTRESN for height / 100)^2), .01).\n\n Note: If height is not collected at a visit, use the height collected at screening.",
      "type": "Computation"
    },
    {
      "OID": "MT.XSSTRESN",
      "name": "Algorithm to derive XSSTRESN",
      "description": "XSSTRESN = numeric value of XSSTRESC, when XSSTRESC contains numeric data.",
      "type": "Computation"
    },
    {
      "OID": "MT.XXBLFL",
      "name": "Algorithm to derive XXBLFL",
      "description": "Safety subjects only: XXBLFL = \"Y\" for last record with non Null XXORRES on or before the first dose date (RFSTDTC).\nNull otherwise.",
      "type": "Computation"
    },
    {
      "OID": "MT.XXDY",
      "name": "Algorithm to derive XXDY",
      "description": "XXDY = XXDTC-RFSTDTC+1 if XXDTC is on or after RFSTDTC. XXDTC - RFSTDTC if XXDTC precedes RFSTDTC.",
      "type": "Computation"
    },
    {
      "OID": "MT.XXSTRESC",
      "name": "Algorithm to derive XXSTRESC",
      "description": "Data collected in non-standard units (i.e. lbs, inches) is converted using standard conversion factors to standard units (kg, cm).\n\nBMI is calculated by the EDC system (operationally derived) as follows:\n round((XXSTRESN for weight/ (XXSTRESN for height / 100)^2), .01).\n\n Note: If height is not collected at a visit, use the height collected at screening.",
      "type": "Computation"
    },
    {
      "OID": "MT.XXSTRESN",
      "name": "Algorithm to derive XXSTRESN",
      "description": "XXSTRESN = numeric value of XXSTRESC, when XXSTRESC contains numeric data.",
      "type": "Computation"
    }
  ],
  "codeLists": [
    {
      "OID": "CL.AGEU",
      "name": "Age Unit",
      "coding": [
        {
          "code": "C66781",
          "codeSystem": "nci:ExtCodeID"
        }
      ],
      "dataType": "text",
      "codeListItems": [
        {
          "codedValue": "YEARS",
          "coding": {
            "code": "C29848",
            "codeSystem": "nci:ExtCodeID"
          }
        }
      ]
    },
    {
      "OID": "CL.ARM",
      "name": "Description of Planned Arm",
      "dataType": "text",
      "codeListItems": [
        {
          "codedValue": "Miracle Drug 10 mg"
        },
        {
          "codedValue": "Miracle Drug 20 mg"
        },
        {
          "codedValue": "Placebo"
        },
        {
          "codedValue": "Screen Failure"
        }
      ]
    },
    {
      "OID": "CL.ARMCD",
      "name": "Planned Arm Code",
      "dataType": "text",
      "codeListItems": [
        {
          "codedValue": "WONDER10",
          "decode": "Miracle Drug 10 mg"
        },
        {
          "codedValue": "WONDER20",
          "decode": "Miracle Drug 20 mg"
        },
        {
          "codedValue": "PLACEBO",
          "decode": "Placebo"
        },
        {
          "codedValue": "SCRNFAIL",
          "decode": "Screen Failure"
        }
      ]
    },
    {
      "OID": "CL.COUNTRY.STUDY",
      "name": "Study Planned Countries",
      "dataType": "text",
      "codeListItems": [
        {
          "codedValue": "USA",
          "decode": "United States of America (the)"
        },
        {
          "codedValue": "CAN",
          "decode": "Canada"
        },
        {
          "codedValue": "MEX",
          "decode": "Mexico"
        }
      ]
    },
    {
      "OID": "CL.DI.DOMAIN",
      "name": "Domain Abbreviation (DI)",
      "coding": [
        {
          "code": "C66734",
          "codeSystem": "nci:ExtCodeID"
        }
      ],
      "dataType": "text",
      "codeListItems": [
        {
          "codedValue": "DI",
          "decode": "Device Identifiers",
          "coding": {
            "code": "C102618",
            "codeSystem": "nci:ExtCodeID"
          }
        }
      ]
    },
    {
      "OID": "CL.DM.DOMAIN",
      "name": "Domain Abbreviation (DM)",
      "coding": [
        {
          "code": "C66734",
          "codeSystem": "nci:ExtCodeID"
        }
      ],
      "dataType": "text",
      "codeListItems": [
        {
          "codedValue": "DM",
          "decode": "Demographics",
          "coding": {
            "code": "C49572",
            "codeSystem": "nci:ExtCodeID"
          }
        }
      ]
    },
    {
      "OID": "CL.EC.DOMAIN",
      "name": "Domain Abbreviation (EC)",
      "coding": [
        {
          "code": "C66734",
          "codeSystem": "nci:ExtCodeID"
        }
      ],
      "dataType": "text",
      "codeListItems": [
        {
          "codedValue": "EC",
          "decode": "Exposure as Collected",
          "coding": {
            "code": "C49587",
            "codeSystem": "nci:ExtCodeID"
          }
        }
      ]
    },
    {
      "OID": "CL.ETHNIC",
      "name": "Ethnic Group",
      "coding": [
        {
          "code": "C66790",
          "codeSystem": "nci:ExtCodeID"
        }
      ],
      "dataType": "text",
      "codeListItems": [
        {
          "codedValue": "HISPANIC OR LATINO",
          "coding": {
            "code": "C17459",
            "codeSystem": "nci:ExtCodeID"
          }
        },
        {
          "codedValue": "NOT HISPANIC OR LATINO",
          "coding": {
            "code": "C41222",
            "codeSystem": "nci:ExtCodeID"
          }
        }
      ]
    },
    {
      "OID": "CL.EX.DOMAIN",
      "name": "Domain Abbreviation (EX)",
      "coding": [
        {
          "code": "C66734",
          "codeSystem": "nci:ExtCodeID"
        }
      ],
      "dataType": "text",
      "codeListItems": [
        {
          "codedValue": "EX",
          "decode": "Exposure",
          "coding": {
            "code": "C49587",
            "codeSystem": "nci:ExtCodeID"
          }
        }
      ]
    },
    {
      "OID": "CL.EXTRT",
      "name": "Treatment",
      "dataType": "text",
      "codeListItems": [
        {
          "codedValue": "Miracle Drug"
        },
        {
          "codedValue": "Placebo"
        }
      ]
    },
    {
      "OID": "CL.FRM",
      "name": "Pharmaceutical Dosage Form",
      "coding": [
        {
          "code": "C66726",
          "codeSystem": "nci:ExtCodeID"
        }
      ],
      "dataType": "text",
      "codeListItems": [
        {
          "codedValue": "TABLET",
          "decode": "tab",
          "coding": {
            "code": "C42998",
            "codeSystem": "nci:ExtCodeID"
          }
        }
      ]
    },
    {
      "OID": "CL.LB.DOMAIN",
      "name": "Domain Abbreviation (LB)",
      "coding": [
        {
          "code": "C66734",
          "codeSystem": "nci:ExtCodeID"
        }
      ],
      "dataType": "text",
      "codeListItems": [
        {
          "codedValue": "LB",
          "decode": "Laboratory Data",
          "coding": {
            "code": "C49592",
            "codeSystem": "nci:ExtCodeID"
          }
        }
      ]
    },
    {
      "OID": "CL.LBRESU",
      "name": "Unit (LBRESU)",
      "coding": [
        {
          "code": "C71620",
          "codeSystem": "nci:ExtCodeID"
        }
      ],
      "dataType": "text",
      "codeListItems": [
        {
          "codedValue": "%",
          "decode": "Percentage",
          "coding": {
            "code": "C25613",
            "codeSystem": "nci:ExtCodeID"
          }
        },
        {
          "codedValue": "X10^9/L",
          "decode": "X10^9/L"
        },
        {
          "codedValue": "g/dL",
          "decode": "Gram per Deciliter",
          "coding": {
            "code": "C64783",
            "codeSystem": "nci:ExtCodeID"
          }
        },
        {
          "codedValue": "mg/dL",
          "decode": "Milligram per Deciliter",
          "coding": {
            "code": "C67015",
            "codeSystem": "nci:ExtCodeID"
          }
        },
        {
          "codedValue": "ng/dL",
          "decode": "Nanogram per Deciliter",
          "coding": {
            "code": "C67326",
            "codeSystem": "nci:ExtCodeID"
          }
        },
        {
          "codedValue": "pg/mL",
          "decode": "pg/mL"
        }
      ]
    },
    {
      "OID": "CL.LBTEST",
      "name": "Laboratory Test Name",
      "coding": [
        {
          "code": "C67154",
          "codeSystem": "nci:ExtCodeID"
        }
      ],
      "dataType": "text",
      "codeListItems": [
        {
          "codedValue": "Bilirubin",
          "coding": {
            "code": "C38037",
            "codeSystem": "nci:ExtCodeID"
          }
        },
        {
          "codedValue": "Blood Urea Nitrogen",
          "coding": {
            "code": "C61019",
            "codeSystem": "nci:ExtCodeID"
          }
        },
        {
          "codedValue": "Glucose",
          "coding": {
            "code": "C41376",
            "codeSystem": "nci:ExtCodeID"
          }
        },
        {
          "codedValue": "Hematocrit",
          "coding": {
            "code": "C64796",
            "codeSystem": "nci:ExtCodeID"
          }
        },
        {
          "codedValue": "Hemoglobin",
          "coding": {
            "code": "C64848",
            "codeSystem": "nci:ExtCodeID"
          }
        },
        {
          "codedValue": "Lymphocytes",
          "coding": {
            "code": "C51949",
            "codeSystem": "nci:ExtCodeID"
          }
        },
        {
          "codedValue": "Occult Blood",
          "coding": {
            "code": "C74686",
            "codeSystem": "nci:ExtCodeID"
          }
        },
        {
          "codedValue": "Vitamin B12",
          "coding": {
            "code": "C64817",
            "codeSystem": "nci:ExtCodeID"
          }
        },
        {
          "codedValue": "Vitamin B9",
          "coding": {
            "code": "C74676",
            "codeSystem": "nci:ExtCodeID"
          }
        },
        {
          "codedValue": "pH",
          "coding": {
            "code": "C45997",
            "codeSystem": "nci:ExtCodeID"
          }
        }
      ]
    },
    {
      "OID": "CL.LBTESTCD",
      "name": "Laboratory Test Code",
      "coding": [
        {
          "code": "C65047",
          "codeSystem": "nci:ExtCodeID"
        }
      ],
      "dataType": "text",
      "codeListItems": [
        {
          "codedValue": "BILI",
          "decode": "Bilirubin",
          "coding": {
            "code": "C38037",
            "codeSystem": "nci:ExtCodeID"
          }
        },
        {
          "codedValue": "BUN",
          "decode": "Blood Urea Nitrogen",
          "coding": {
            "code": "C61019",
            "codeSystem": "nci:ExtCodeID"
          }
        },
        {
          "codedValue": "GLUC",
          "decode": "Glucose",
          "coding": {
            "code": "C41376",
            "codeSystem": "nci:ExtCodeID"
          }
        },
        {
          "codedValue": "HCT",
          "decode": "Hematocrit",
          "coding": {
            "code": "C64796",
            "codeSystem": "nci:ExtCodeID"
          }
        },
        {
          "codedValue": "HGB",
          "decode": "Hemoglobin",
          "coding": {
            "code": "C64848",
            "codeSystem": "nci:ExtCodeID"
          }
        },
        {
          "codedValue": "LYM",
          "decode": "Lymphocytes",
          "coding": {
            "code": "C51949",
            "codeSystem": "nci:ExtCodeID"
          }
        },
        {
          "codedValue": "OCCBLD",
          "decode": "Occult Blood",
          "coding": {
            "code": "C74686",
            "codeSystem": "nci:ExtCodeID"
          }
        },
        {
          "codedValue": "PH",
          "decode": "pH",
          "coding": {
            "code": "C45997",
            "codeSystem": "nci:ExtCodeID"
          }
        },
        {
          "codedValue": "VITB12",
          "decode": "Vitamin B12",
          "coding": {
            "code": "C64817",
            "codeSystem": "nci:ExtCodeID"
          }
        },
        {
          "codedValue": "VITB9",
          "decode": "Vitamin B9",
          "coding": {
            "code": "C74676",
            "codeSystem": "nci:ExtCodeID"
          }
        }
      ]
    },
    {
      "OID": "CL.METHOD",
      "name": "Method",
      "coding": [
        {
          "code": "C85492",
          "codeSystem": "nci:ExtCodeID"
        }
      ],
      "dataType": "text",
      "codeListItems": [
        {
          "codedValue": "DIPSTICK"
        },
        {
          "codedValue": "QUANT"
        }
      ]
    },
    {
      "OID": "CL.NRIND",
      "name": "Reference Range Indicator",
      "coding": [
        {
          "code": "C78736",
          "codeSystem": "nci:ExtCodeID"
        }
      ],
      "dataType": "text",
      "codeListItems": [
        {
          "codedValue": "ABNORMAL",
          "coding": {
            "code": "C78802",
            "codeSystem": "nci:ExtCodeID"
          }
        },
        {
          "codedValue": "HIGH",
          "coding": {
            "code": "C78800",
            "codeSystem": "nci:ExtCodeID"
          }
        },
        {
          "codedValue": "LOW",
          "coding": {
            "code": "C78801",
            "codeSystem": "nci:ExtCodeID"
          }
        },
        {
          "codedValue": "NORMAL",
          "coding": {
            "code": "C78727",
            "codeSystem": "nci:ExtCodeID"
          }
        }
      ]
    },
    {
      "OID": "CL.NY",
      "name": "No Yes Response Subset",
      "coding": [
        {
          "code": "C66742",
          "codeSystem": "nci:ExtCodeID"
        }
      ],
      "dataType": "text",
      "codeListItems": [
        {
          "codedValue": "Y",
          "decode": "Yes",
          "coding": {
            "code": "C49488",
            "codeSystem": "nci:ExtCodeID"
          }
        },
        {
          "codedValue": "N",
          "decode": "No",
          "coding": {
            "code": "C49487",
            "codeSystem": "nci:ExtCodeID"
          }
        },
        {
          "codedValue": "U",
          "decode": "Unknown",
          "coding": {
            "code": "C17998",
            "codeSystem": "nci:ExtCodeID"
          }
        }
      ]
    },
    {
      "OID": "CL.RACE",
      "name": "Race",
      "coding": [
        {
          "code": "C74457",
          "codeSystem": "nci:ExtCodeID"
        }
      ],
      "dataType": "text",
      "codeListItems": [
        {
          "codedValue": "WHITE",
          "coding": {
            "code": "C41261",
            "codeSystem": "nci:ExtCodeID"
          }
        },
        {
          "codedValue": "AMERICAN INDIAN OR ALASKA NATIVE",
          "coding": {
            "code": "C41259",
            "codeSystem": "nci:ExtCodeID"
          }
        },
        {
          "codedValue": "BLACK OR AFRICAN AMERICAN",
          "coding": {
            "code": "C16352",
            "codeSystem": "nci:ExtCodeID"
          }
        },
        {
          "codedValue": "ASIAN",
          "coding": {
            "code": "C41260",
            "codeSystem": "nci:ExtCodeID"
          }
        },
        {
          "codedValue": "NATIVE HAWAIIAN OR OTHER PACIFIC ISLANDER",
          "coding": {
            "code": "C41219",
            "codeSystem": "nci:ExtCodeID"
          }
        }
      ]
    },
    {
      "OID": "CL.SEX",
      "name": "Sex",
      "coding": [
        {
          "code": "C66731",
          "codeSystem": "nci:ExtCodeID"
        }
      ],
      "dataType": "text",
      "codeListItems": [
        {
          "codedValue": "F",
          "decode": "Female",
          "coding": {
            "code": "C16576",
            "codeSystem": "nci:ExtCodeID"
          }
        },
        {
          "codedValue": "M",
          "decode": "Male",
          "coding": {
            "code": "C20197",
            "codeSystem": "nci:ExtCodeID"
          }
        },
        {
          "codedValue": "U",
          "decode": "Unknown",
          "coding": {
            "code": "C17998",
            "codeSystem": "nci:ExtCodeID"
          }
        },
        {
          "codedValue": "UNDIFFERENTIATED",
          "decode": "Undifferentiated",
          "coding": {
            "code": "C17998",
            "codeSystem": "nci:ExtCodeID"
          }
        }
      ]
    },
    {
      "OID": "CL.SIZE",
      "name": "Size",
      "coding": [
        {
          "code": "C66733",
          "codeSystem": "nci:ExtCodeID"
        }
      ],
      "dataType": "text",
      "codeListItems": [
        {
          "codedValue": "SMALL",
          "coding": {
            "code": "C25376",
            "codeSystem": "nci:ExtCodeID"
          },
          "weight": "1"
        },
        {
          "codedValue": "MEDIUM",
          "coding": {
            "code": "C49507",
            "codeSystem": "nci:ExtCodeID"
          },
          "weight": "2"
        },
        {
          "codedValue": "LARGE",
          "coding": {
            "code": "C49508",
            "codeSystem": "nci:ExtCodeID"
          },
          "weight": "3"
        }
      ]
    },
    {
      "OID": "CL.SPECTYPE",
      "name": "Specimen Type",
      "coding": [
        {
          "code": "C78734",
          "codeSystem": "nci:ExtCodeID"
        }
      ],
      "dataType": "text",
      "codeListItems": [
        {
          "codedValue": "BLOOD",
          "coding": {
            "code": "C12434",
            "codeSystem": "nci:ExtCodeID"
          }
        },
        {
          "codedValue": "SERUM",
          "coding": {
            "code": "C13325",
            "codeSystem": "nci:ExtCodeID"
          }
        },
        {
          "codedValue": "URINE",
          "coding": {
            "code": "C13283",
            "codeSystem": "nci:ExtCodeID"
          }
        }
      ]
    },
    {
      "OID": "CL.TS.DOMAIN",
      "name": "Domain Abbreviation (TS)",
      "coding": [
        {
          "code": "C66734",
          "codeSystem": "nci:ExtCodeID"
        }
      ],
      "dataType": "text",
      "codeListItems": [
        {
          "codedValue": "TS",
          "decode": "Trial Summary",
          "coding": {
            "code": "C53483",
            "codeSystem": "nci:ExtCodeID"
          }
        }
      ]
    },
    {
      "OID": "CL.TSPARM",
      "name": "Trial Summary Parameter Test Name",
      "coding": [
        {
          "code": "C67152",
          "codeSystem": "nci:ExtCodeID"
        }
      ],
      "dataType": "text",
      "codeListItems": [
        {
          "codedValue": "Added on to Existing Treatments",
          "coding": {
            "code": "C49703",
            "codeSystem": "nci:ExtCodeID"
          }
        },
        {
          "codedValue": "Age Span",
          "coding": {
            "code": "C20587",
            "codeSystem": "nci:ExtCodeID"
          }
        },
        {
          "codedValue": "Age Unit"
        },
        {
          "codedValue": "Clinical Study Sponsor",
          "coding": {
            "code": "C70793",
            "codeSystem": "nci:ExtCodeID"
          }
        },
        {
          "codedValue": "Control Type",
          "coding": {
            "code": "C49647",
            "codeSystem": "nci:ExtCodeID"
          }
        },
        {
          "codedValue": "Dose Units",
          "coding": {
            "code": "C73558",
            "codeSystem": "nci:ExtCodeID"
          }
        },
        {
          "codedValue": "Dose per Administration",
          "coding": {
            "code": "C25488",
            "codeSystem": "nci:ExtCodeID"
          }
        },
        {
          "codedValue": "Dosing Frequency",
          "coding": {
            "code": "C89081",
            "codeSystem": "nci:ExtCodeID"
          }
        },
        {
          "codedValue": "Investigational Therapy or Treatment",
          "coding": {
            "code": "C41161",
            "codeSystem": "nci:ExtCodeID"
          }
        },
        {
          "codedValue": "Planned Country of Investigational Sites",
          "coding": {
            "code": "C98770",
            "codeSystem": "nci:ExtCodeID"
          }
        },
        {
          "codedValue": "Planned Maximum Age of Subjects",
          "coding": {
            "code": "C49694",
            "codeSystem": "nci:ExtCodeID"
          }
        },
        {
          "codedValue": "Planned Minimum Age of Subjects",
          "coding": {
            "code": "C49693",
            "codeSystem": "nci:ExtCodeID"
          }
        },
        {
          "codedValue": "Planned Number of Subjects",
          "coding": {
            "code": "C49692",
            "codeSystem": "nci:ExtCodeID"
          }
        },
        {
          "codedValue": "Route of Administration",
          "coding": {
            "code": "C38114",
            "codeSystem": "nci:ExtCodeID"
          }
        },
        {
          "codedValue": "Sex of Participants",
          "coding": {
            "code": "C49696",
            "codeSystem": "nci:ExtCodeID"
          }
        },
        {
          "codedValue": "Trial Blinding Schema",
          "coding": {
            "code": "C49658",
            "codeSystem": "nci:ExtCodeID"
          }
        },
        {
          "codedValue": "Trial Indication Type",
          "coding": {
            "code": "C49652",
            "codeSystem": "nci:ExtCodeID"
          }
        },
        {
          "codedValue": "Trial Length",
          "coding": {
            "code": "C49697",
            "codeSystem": "nci:ExtCodeID"
          }
        },
        {
          "codedValue": "Trial Phase Classification",
          "coding": {
            "code": "C48281",
            "codeSystem": "nci:ExtCodeID"
          }
        },
        {
          "codedValue": "Trial Primary Objective",
          "coding": {
            "code": "C85826",
            "codeSystem": "nci:ExtCodeID"
          }
        },
        {
          "codedValue": "Trial Secondary Objective",
          "coding": {
            "code": "C85827",
            "codeSystem": "nci:ExtCodeID"
          }
        },
        {
          "codedValue": "Trial Title",
          "coding": {
            "code": "C49802",
            "codeSystem": "nci:ExtCodeID"
          }
        },
        {
          "codedValue": "Trial Type",
          "coding": {
            "code": "C49660",
            "codeSystem": "nci:ExtCodeID"
          }
        },
        {
          "codedValue": "Trial is Randomized",
          "coding": {
            "code": "C25196",
            "codeSystem": "nci:ExtCodeID"
          }
        }
      ]
    },
    {
      "OID": "CL.TSPARMCD",
      "name": "Trial Summary Parameter Test Code",
      "coding": [
        {
          "code": "C66738",
          "codeSystem": "nci:ExtCodeID"
        }
      ],
      "dataType": "text",
      "codeListItems": [
        {
          "codedValue": "ADDON",
          "decode": "Added on to Existing Treatments",
          "coding": {
            "code": "C49703",
            "codeSystem": "nci:ExtCodeID"
          }
        },
        {
          "codedValue": "AGEMAX",
          "decode": "Planned Maximum Age of Subjects",
          "coding": {
            "code": "C49694",
            "codeSystem": "nci:ExtCodeID"
          }
        },
        {
          "codedValue": "AGEMIN",
          "decode": "Planned Minimum Age of Subjects",
          "coding": {
            "code": "C49693",
            "codeSystem": "nci:ExtCodeID"
          }
        },
        {
          "codedValue": "AGESPAN",
          "decode": "Age Span",
          "coding": {
            "code": "C20587",
            "codeSystem": "nci:ExtCodeID"
          }
        },
        {
          "codedValue": "AGEU",
          "decode": "Age Unit"
        },
        {
          "codedValue": "DOSE",
          "decode": "Dose per Administration",
          "coding": {
            "code": "C25488",
            "codeSystem": "nci:ExtCodeID"
          }
        },
        {
          "codedValue": "DOSFRQ",
          "decode": "Dosing Frequency",
          "coding": {
            "code": "C89081",
            "codeSystem": "nci:ExtCodeID"
          }
        },
        {
          "codedValue": "DOSU",
          "decode": "Dose Units",
          "coding": {
            "code": "C73558",
            "codeSystem": "nci:ExtCodeID"
          }
        },
        {
          "codedValue": "FCNTRY",
          "decode": "Planned Country of Investigational Sites",
          "coding": {
            "code": "C98770",
            "codeSystem": "nci:ExtCodeID"
          }
        },
        {
          "codedValue": "LENGTH",
          "decode": "Trial Length",
          "coding": {
            "code": "C49697",
            "codeSystem": "nci:ExtCodeID"
          }
        },
        {
          "codedValue": "OBJPRIM",
          "decode": "Trial Primary Objective",
          "coding": {
            "code": "C85826",
            "codeSystem": "nci:ExtCodeID"
          }
        },
        {
          "codedValue": "OBJSEC",
          "decode": "Trial Secondary Objective",
          "coding": {
            "code": "C85827",
            "codeSystem": "nci:ExtCodeID"
          }
        },
        {
          "codedValue": "PLANSUB",
          "decode": "Planned Number of Subjects",
          "coding": {
            "code": "C49692",
            "codeSystem": "nci:ExtCodeID"
          }
        },
        {
          "codedValue": "RANDOM",
          "decode": "Trial is Randomized",
          "coding": {
            "code": "C25196",
            "codeSystem": "nci:ExtCodeID"
          }
        },
        {
          "codedValue": "ROUTE",
          "decode": "Route of Administration",
          "coding": {
            "code": "C38114",
            "codeSystem": "nci:ExtCodeID"
          }
        },
        {
          "codedValue": "SEXPOP",
          "decode": "Sex of Participants",
          "coding": {
            "code": "C49696",
            "codeSystem": "nci:ExtCodeID"
          }
        },
        {
          "codedValue": "SPONSOR",
          "decode": "Clinical Study Sponsor",
          "coding": {
            "code": "C70793",
            "codeSystem": "nci:ExtCodeID"
          }
        },
        {
          "codedValue": "TBLIND",
          "decode": "Trial Blinding Schema",
          "coding": {
            "code": "C49658",
            "codeSystem": "nci:ExtCodeID"
          }
        },
        {
          "codedValue": "TCNTRL",
          "decode": "Control Type",
          "coding": {
            "code": "C49647",
            "codeSystem": "nci:ExtCodeID"
          }
        },
        {
          "codedValue": "TINDTP",
          "decode": "Trial Indication Type",
          "coding": {
            "code": "C49652",
            "codeSystem": "nci:ExtCodeID"
          }
        },
        {
          "codedValue": "TITLE",
          "decode": "Trial Title",
          "coding": {
            "code": "C49802",
            "codeSystem": "nci:ExtCodeID"
          }
        },
        {
          "codedValue": "TPHASE",
          "decode": "Trial Phase Classification",
          "coding": {
            "code": "C48281",
            "codeSystem": "nci:ExtCodeID"
          }
        },
        {
          "codedValue": "TRT",
          "decode": "Investigational Therapy or Treatment",
          "coding": {
            "code": "C41161",
            "codeSystem": "nci:ExtCodeID"
          }
        },
        {
          "codedValue": "TTYPE",
          "decode": "Trial Type",
          "coding": {
            "code": "C49660",
            "codeSystem": "nci:ExtCodeID"
          }
        }
      ]
    },
    {
      "OID": "CL.UH_MC",
      "name": "Unit (UH_MC)",
      "coding": [
        {
          "code": "C71620",
          "codeSystem": "nci:ExtCodeID"
        }
      ],
      "dataType": "text",
      "codeListItems": [
        {
          "codedValue": "cm",
          "decode": "Centimeter",
          "coding": {
            "code": "C49668",
            "codeSystem": "nci:ExtCodeID"
          }
        }
      ]
    },
    {
      "OID": "CL.UH_NMC",
      "name": "Unit (UH_NMC)",
      "coding": [
        {
          "code": "C71620",
          "codeSystem": "nci:ExtCodeID"
        }
      ],
      "dataType": "text",
      "codeListItems": [
        {
          "codedValue": "IN",
          "decode": "Inch",
          "coding": {
            "code": "C48500",
            "codeSystem": "nci:ExtCodeID"
          }
        }
      ]
    },
    {
      "OID": "CL.UW_MC",
      "name": "Unit (UW_MC)",
      "coding": [
        {
          "code": "C71620",
          "codeSystem": "nci:ExtCodeID"
        }
      ],
      "dataType": "text",
      "codeListItems": [
        {
          "codedValue": "kg",
          "decode": "Kilogram",
          "coding": {
            "code": "C28252",
            "codeSystem": "nci:ExtCodeID"
          }
        }
      ]
    },
    {
      "OID": "CL.UW_NMC",
      "name": "Unit (UW_NMC)",
      "coding": [
        {
          "code": "C71620",
          "codeSystem": "nci:ExtCodeID"
        }
      ],
      "dataType": "text",
      "codeListItems": [
        {
          "codedValue": "LB",
          "decode": "Pound",
          "coding": {
            "code": "C48531",
            "codeSystem": "nci:ExtCodeID"
          }
        }
      ]
    },
    {
      "OID": "CL.VS.DOMAIN",
      "name": "Domain Abbreviation (VS)",
      "coding": [
        {
          "code": "C66734",
          "codeSystem": "nci:ExtCodeID"
        }
      ],
      "dataType": "text",
      "codeListItems": [
        {
          "codedValue": "VS",
          "decode": "Vital Signs",
          "coding": {
            "code": "C49622",
            "codeSystem": "nci:ExtCodeID"
          }
        }
      ]
    },
    {
      "OID": "CL.VSRESU",
      "name": "Units for Vital Signs Orig Results",
      "coding": [
        {
          "code": "C66770",
          "codeSystem": "nci:ExtCodeID"
        }
      ],
      "dataType": "text",
      "codeListItems": [
        {
          "codedValue": "Beats per Minute",
          "decode": "Beats per Minute",
          "coding": {
            "code": "C49673",
            "codeSystem": "nci:ExtCodeID"
          }
        },
        {
          "codedValue": "cm",
          "decode": "Centimeter",
          "coding": {
            "code": "C49668",
            "codeSystem": "nci:ExtCodeID"
          }
        },
        {
          "codedValue": "kg",
          "decode": "Kilogram",
          "coding": {
            "code": "C28252",
            "codeSystem": "nci:ExtCodeID"
          }
        },
        {
          "codedValue": "mmHg",
          "decode": "Millimeter of Mercury",
          "coding": {
            "code": "C49670",
            "codeSystem": "nci:ExtCodeID"
          }
        },
        {
          "codedValue": "kg/m2",
          "decode": "Kilogram per Square Meter",
          "coding": {
            "code": "C49671",
            "codeSystem": "nci:ExtCodeID"
          }
        }
      ]
    },
    {
      "OID": "CL.VSTEST",
      "name": "Vital Signs Test Name",
      "coding": [
        {
          "code": "C67153",
          "codeSystem": "nci:ExtCodeID"
        }
      ],
      "dataType": "text",
      "codeListItems": [
        {
          "codedValue": "Body Mass Index",
          "coding": {
            "code": "C16358",
            "codeSystem": "nci:ExtCodeID"
          }
        },
        {
          "codedValue": "Body Frame Size",
          "coding": {
            "code": "C49680",
            "codeSystem": "nci:ExtCodeID"
          }
        },
        {
          "codedValue": "Diastolic Blood Pressure",
          "coding": {
            "code": "C25299",
            "codeSystem": "nci:ExtCodeID"
          }
        },
        {
          "codedValue": "Height",
          "coding": {
            "code": "C25347",
            "codeSystem": "nci:ExtCodeID"
          }
        },
        {
          "codedValue": "Pulse Rate",
          "coding": {
            "code": "C49676",
            "codeSystem": "nci:ExtCodeID"
          }
        },
        {
          "codedValue": "Systolic Blood Pressure",
          "coding": {
            "code": "C25298",
            "codeSystem": "nci:ExtCodeID"
          }
        },
        {
          "codedValue": "Weight",
          "coding": {
            "code": "C25208",
            "codeSystem": "nci:ExtCodeID"
          }
        }
      ]
    },
    {
      "OID": "CL.VSTESTCD",
      "name": "Vital Signs Test Code",
      "coding": [
        {
          "code": "C66741",
          "codeSystem": "nci:ExtCodeID"
        }
      ],
      "dataType": "text",
      "codeListItems": [
        {
          "codedValue": "BMI",
          "decode": "Body Mass Index",
          "coding": {
            "code": "C16358",
            "codeSystem": "nci:ExtCodeID"
          }
        },
        {
          "codedValue": "DIABP",
          "decode": "Diastolic Blood Pressure",
          "coding": {
            "code": "C25299",
            "codeSystem": "nci:ExtCodeID"
          }
        },
        {
          "codedValue": "FRMSIZE",
          "decode": "Body Frame Size",
          "coding": {
            "code": "C49680",
            "codeSystem": "nci:ExtCodeID"
          }
        },
        {
          "codedValue": "HEIGHT",
          "decode": "Height",
          "coding": {
            "code": "C25347",
            "codeSystem": "nci:ExtCodeID"
          }
        },
        {
          "codedValue": "PULSE",
          "decode": "Pulse Rate",
          "coding": {
            "code": "C49676",
            "codeSystem": "nci:ExtCodeID"
          }
        },
        {
          "codedValue": "SYSBP",
          "decode": "Systolic Blood Pressure",
          "coding": {
            "code": "C25298",
            "codeSystem": "nci:ExtCodeID"
          }
        },
        {
          "codedValue": "WEIGHT",
          "decode": "Weight",
          "coding": {
            "code": "C25208",
            "codeSystem": "nci:ExtCodeID"
          }
        }
      ]
    },
    {
      "OID": "CL.XSRESU",
      "name": "Units for S Findings Results",
      "aliases": [
        "Sponsor|||XY12345"
      ],
      "dataType": "text",
      "codeListItems": [
        {
          "codedValue": "g/dL",
          "decode": "g/dL",
          "coding": {
            "code": "C64783",
            "codeSystem": "nci:ExtCodeID"
          }
        },
        {
          "codedValue": "mg/dL",
          "decode": "mg/dL",
          "coding": {
            "code": "C67015",
            "codeSystem": "nci:ExtCodeID"
          }
        }
      ]
    },
    {
      "OID": "CL.XSTEST",
      "name": "S Findings Test Name",
      "aliases": [
        "Sponsor|||XY12346"
      ],
      "dataType": "text",
      "codeListItems": [
        {
          "codedValue": "Test 1",
          "coding": {
            "code": "X12346001",
            "codeSystem": "Sponsor"
          }
        },
        {
          "codedValue": "Test 2",
          "coding": {
            "code": "X12346002",
            "codeSystem": "Sponsor"
          }
        },
        {
          "codedValue": "Test 3",
          "coding": {
            "code": "X12346003",
            "codeSystem": "Sponsor"
          }
        }
      ]
    },
    {
      "OID": "CL.XSTESTCD",
      "name": "S Findings Test Code",
      "aliases": [
        "Sponsor|||XY12347"
      ],
      "dataType": "text",
      "codeListItems": [
        {
          "codedValue": "TEST1",
          "decode": "Test 1",
          "coding": {
            "code": "X12346001",
            "codeSystem": "Sponsor"
          }
        },
        {
          "codedValue": "TEST2",
          "decode": "Test 2",
          "coding": {
            "code": "X12346002",
            "codeSystem": "Sponsor"
          }
        },
        {
          "codedValue": "TEST3",
          "decode": "Test 3",
          "coding": {
            "code": "X12346003",
            "codeSystem": "Sponsor"
          }
        }
      ]
    },
    {
      "OID": "CL.XXRESU",
      "name": "Units for X Findings Results",
      "aliases": [
        "Sponsor|||XY123451"
      ],
      "dataType": "text",
      "codeListItems": [
        {
          "codedValue": "g/dL",
          "decode": "g/dL",
          "coding": {
            "code": "C64783",
            "codeSystem": "nci:ExtCodeID"
          }
        },
        {
          "codedValue": "mg/dL",
          "decode": "mg/dL",
          "coding": {
            "code": "C67015",
            "codeSystem": "nci:ExtCodeID"
          }
        },
        {
          "codedValue": "%",
          "decode": "%",
          "coding": {
            "code": "C25613",
            "codeSystem": "nci:ExtCodeID"
          }
        }
      ]
    },
    {
      "OID": "CL.XXTEST",
      "name": "X Findings Test Name",
      "aliases": [
        "Sponsor|||XY123462"
      ],
      "dataType": "text",
      "codeListItems": [
        {
          "codedValue": "Test 11",
          "coding": {
            "code": "X12346004",
            "codeSystem": "Sponsor"
          }
        },
        {
          "codedValue": "Test 12",
          "coding": {
            "code": "X12346005",
            "codeSystem": "Sponsor"
          }
        },
        {
          "codedValue": "Test 13",
          "coding": {
            "code": "X12346006",
            "codeSystem": "Sponsor"
          }
        }
      ]
    },
    {
      "OID": "CL.XXTESTCD",
      "name": "X Findings Test Code",
      "aliases": [
        "Sponsor|||XY123473"
      ],
      "dataType": "text",
      "codeListItems": [
        {
          "codedValue": "TEST11",
          "decode": "Test 11",
          "coding": {
            "code": "X12346004",
            "codeSystem": "Sponsor"
          }
        },
        {
          "codedValue": "TEST12",
          "decode": "Test 12",
          "coding": {
            "code": "X12346005",
            "codeSystem": "Sponsor"
          }
        },
        {
          "codedValue": "TEST13",
          "decode": "Test 13",
          "coding": {
            "code": "X12346006",
            "codeSystem": "Sponsor"
          }
        }
      ]
    },
    {
      "OID": "CL.ISO.COUNTRY",
      "wasDerivedFrom": "DICT.ISO-3166_Country_Codes",
      "name": "Country Codes",
      "dataType": "text",
      "codeListItems": []
    }
  ],
  "dictionaries": [
    {
      "OID": "DICT.ISO-3166_Country_Codes",
      "name": "ISO-3166_Country_Codes",
      "version": "2013-11-15",
      "terms": []
    }
  ],
  "standards": [
    {
      "OID": "STD.1",
      "name": "SDTMIG",
      "type": "IG",
      "version": "3.1.2",
      "status": "FINAL"
    },
    {
      "OID": "STD.2",
      "name": "SDTMIG",
      "type": "IG",
      "version": "3.2",
      "status": "FINAL"
    },
    {
      "OID": "STD.2_1",
      "name": "SDTMIG-MD",
      "type": "IG",
      "version": "1.0",
      "status": "FINAL"
    },
    {
      "OID": "STD.3",
      "name": "CDISC/NCI",
      "type": "CT",
      "publishingSet": "SDTM",
      "version": "2011-12-09",
      "status": "FINAL"
    },
    {
      "OID": "STD.4",
      "name": "CDISC/NCI",
      "type": "CT",
      "publishingSet": "SDTM",
      "version": "2015-12-18",
      "status": "FINAL"
    },
    {
      "OID": "STD.5",
      "name": "CDISC/NCI",
      "type": "CT",
      "publishingSet": "DEFINE-XML",
      "version": "2025-03-28",
      "status": "FINAL"
    }
  ],
  "resources": [
    {
      "OID": "RES.LF.TS",
      "name": "ts.xpt",
      "label": "ts.xpt",
      "href": "ts.xpt",
      "resourceType": "ODM"
    },
    {
      "OID": "RES.LF.DI",
      "name": "di.xpt",
      "label": "di.xpt",
      "href": "di.xpt",
      "resourceType": "ODM"
    },
    {
      "OID": "RES.LF.DM",
      "name": "dm.xpt",
      "label": "dm.xpt",
      "href": "dm.xpt",
      "resourceType": "ODM"
    },
    {
      "OID": "RES.LF.EC",
      "name": "ec.xpt",
      "label": "ec.xpt",
      "href": "ec.xpt",
      "resourceType": "ODM"
    },
    {
      "OID": "RES.LF.EX",
      "name": "ex.xpt",
      "label": "ex.xpt",
      "href": "ex.xpt",
      "resourceType": "ODM"
    },
    {
      "OID": "RES.LF.LB",
      "name": "lb.xpt",
      "label": "lb.xpt",
      "href": "lb.xpt",
      "resourceType": "ODM"
    },
    {
      "OID": "RES.LF.VS",
      "name": "vs.xpt",
      "label": "vs.xpt",
      "href": "vs.xpt",
      "resourceType": "ODM"
    },
    {
      "OID": "RES.LF.XS",
      "name": "xs.xpt",
      "label": "xs.xpt",
      "href": "xs.xpt",
      "resourceType": "ODM"
    },
    {
      "OID": "RES.LF.SUPPDM",
      "name": "suppdm.xpt",
      "label": "suppdm.xpt",
      "href": "suppdm.xpt",
      "resourceType": "ODM"
    },
    {
      "OID": "DOC.SUPP.LF.csdrg",
      "title": "Reviewers Guide",
      "leafID": "LF.csdrg"
    },
    {
      "OID": "DOC.SUPP.LF.ComplexAlgorithms",
      "title": "Complex Algorithms",
      "leafID": "LF.ComplexAlgorithms"
    },
    {
      "OID": "RES.LF.acrf",
      "name": "Annotated CRF",
      "label": "Annotated CRF",
      "href": "acrf.pdf",
      "resourceType": "ODM"
    },
    {
      "OID": "RES.LF.csdrg",
      "name": "Reviewers Guide",
      "label": "Reviewers Guide",
      "href": "csdrg.pdf",
      "resourceType": "ODM"
    },
    {
      "OID": "RES.LF.ComplexAlgorithms",
      "name": "Complex Algorithms",
      "label": "Complex Algorithms",
      "href": "complexalgorithms.pdf",
      "resourceType": "ODM"
    }
  ],
  "_xmlMetadata": {
    "namespaces": {
      "odm": "http://www.cdisc.org/ns/odm/v1.3",
      "xlink": "http://www.w3.org/1999/xlink",
      "def": "http://www.cdisc.org/ns/def/v2.1"
    },
    "_odmMetadata": {
      "Name": "Study CDISC01_1, Data Definitions V-1",
      "DefineVersion": "2.1.9",
      "StudyName": "CDISC01_1",
      "StudyDescription": "CDISC Test Study Modified to illustrate Define-XML 2.1 features",
      "ProtocolName": "CDISC01-1"
    },
    "itemDefOrder": [
      "IT.DM.AGE",
      "IT.DM.AGEU",
      "IT.DM.ARM",
      "IT.DM.ARMCD",
      "IT.DM.BRTHDTC",
      "IT.DM.COUNTRY",
      "IT.DM.DOMAIN",
      "IT.DM.ETHNIC",
      "IT.DM.RACE",
      "IT.DM.RFENDTC",
      "IT.DM.RFSTDTC",
      "IT.DM.SEX",
      "IT.DM.SITEID",
      "IT.DM.SUBJID",
      "IT.EC.DOMAIN",
      "IT.EC.EXDOSE",
      "IT.EC.EXDOSFRM",
      "IT.EC.EXDOSU",
      "IT.EC.EXENDTC",
      "IT.EC.EXENDY",
      "IT.EC.EXSEQ",
      "IT.EC.EXSTDTC",
      "IT.EC.EXSTDY",
      "IT.EC.EXTRT",
      "IT.EX.DOMAIN",
      "IT.EX.EXDOSE",
      "IT.EX.EXDOSFRM",
      "IT.EX.EXDOSU",
      "IT.EX.EXENDTC",
      "IT.EX.EXENDY",
      "IT.EX.EXSEQ",
      "IT.EX.EXSTDTC",
      "IT.EX.EXSTDY",
      "IT.EX.EXTRT",
      "IT.LB.DOMAIN",
      "IT.LB.LBBLFL",
      "IT.LB.LBCAT",
      "IT.LB.LBDTC",
      "IT.LB.LBDY",
      "IT.LB.LBFAST",
      "IT.LB.LBMETHOD",
      "IT.LB.LBNRIND",
      "IT.LB.LBORNRHI",
      "IT.LB.LBORNRLO",
      "IT.LB.LBORRES",
      "IT.LB.LBORRESU",
      "IT.LB.LBREFID",
      "IT.LB.LBSEQ",
      "IT.LB.LBNAM",
      "IT.LB.LBSPEC",
      "IT.LB.LBSTNRC",
      "IT.LB.LBSTNRHI",
      "IT.LB.LBSTNRLO",
      "IT.LB.LBSTRESC",
      "IT.LB.LBSTRESN",
      "IT.LB.LBSTRESU",
      "IT.LB.LBTEST",
      "IT.LB.LBTESTCD",
      "IT.LB.VISIT",
      "IT.LB.VISITDY",
      "IT.LB.VISITNUM",
      "IT.RDOMAIN",
      "IT.STUDYID",
      "IT.SUPPDM.IDVAR",
      "IT.SUPPDM.IDVARVAL",
      "IT.SUPPDM.QEVAL",
      "IT.SUPPDM.QLABEL",
      "IT.SUPPDM.QNAM",
      "IT.SUPPDM.QORIG",
      "IT.SUPPDM.QVAL",
      "IT.SUPPVS.IDVAR",
      "IT.SUPPVS.IDVARVAL",
      "IT.SUPPVS.QEVAL",
      "IT.SUPPVS.QLABEL",
      "IT.SUPPVS.QNAM",
      "IT.SUPPVS.QORIG",
      "IT.SUPPVS.QVAL",
      "IT.TS.DOMAIN",
      "IT.TS.TSPARM",
      "IT.TS.TSPARMCD",
      "IT.TS.TSSEQ",
      "IT.TS.TSVAL",
      "IT.USUBJID",
      "IT.VS.DOMAIN",
      "IT.VS.VISIT",
      "IT.VS.VISITDY",
      "IT.VS.VISITNUM",
      "IT.VS.VSBLFL",
      "IT.VS.VSDTC",
      "IT.VS.VSDY",
      "IT.VS.VSORRES",
      "IT.VS.VSORRESU",
      "IT.VS.VSPOS",
      "IT.VS.VSSEQ",
      "IT.VS.VSSTRESC",
      "IT.VS.VSSTRESN",
      "IT.VS.VSSTRESU",
      "IT.VS.VSTEST",
      "IT.VS.VSTESTCD",
      "IT.XS.DOMAIN",
      "IT.XS.VISIT",
      "IT.XS.VISITDY",
      "IT.XS.VISITNUM",
      "IT.XS.XSBLFL",
      "IT.XS.XSDTC",
      "IT.XS.XSDY",
      "IT.XS.XSORRES",
      "IT.XS.XSORRESU",
      "IT.XS.XSSEQ",
      "IT.XS.XSSTRESC",
      "IT.XS.XSSTRESN",
      "IT.XS.XSSTRESU",
      "IT.XS.XSTEST",
      "IT.XS.XSTESTCD",
      "IT.XX.DOMAIN",
      "IT.XX.VISIT",
      "IT.XX.VISITDY",
      "IT.XX.VISITNUM",
      "IT.XX.XXBLFL",
      "IT.XX.XXDTC",
      "IT.XX.XXDY",
      "IT.XX.XXORRES",
      "IT.XX.XXORRESU",
      "IT.XX.XXSEQ",
      "IT.XX.XXSTRESC",
      "IT.XX.XXSTRESN",
      "IT.XX.XXSTRESU",
      "IT.XX.XXTEST",
      "IT.XX.XXTESTCD",
      "IT.DOMAIN",
      "IT.SPDEVID",
      "IT.DISEQ",
      "IT.DIPARMCD",
      "IT.DIPARM",
      "IT.DIVAL",
      "IT.LB.LBORRES.SET1.LBSPEC.BLOOD",
      "IT.LB.LBORRES.SET2.LBSPEC.BLOOD",
      "IT.LB.LBORRES.SET3.LBSPEC.URINE",
      "IT.LB.LBORRES.HCT.LBSPEC.BLOOD.VENDOR",
      "IT.LB.LBORRES.HCT.LBSPEC.BLOOD.CRF",
      "IT.LB.LBORRES.PH.LBSPEC.URINE",
      "IT.LB.LBORRES.VITB12.LBSPEC.SERUM",
      "IT.LB.LBORRES.VITB9.LBSPEC.BLOOD",
      "IT.SUPPDM.QVAL.RACE1",
      "IT.SUPPDM.QVAL.RACE2",
      "IT.SUPPDM.QVAL.RACE3",
      "IT.SUPPDM.QVAL.RAND",
      "IT.SUPPDM.QVAL.RANDNO",
      "IT.SUPPDM.QVAL.SAFETY",
      "IT.SUPPVS.QVAL.VSCLSIG",
      "IT.TS.TSVAL.AGEMAX",
      "IT.TS.TSVAL.AGEMIN",
      "IT.TS.TSVAL.AGEU",
      "IT.TS.TSVAL.DOSE",
      "IT.TS.TSVAL.FCNTRY",
      "IT.TS.TSVAL.PLANSUB",
      "IT.VS.VSORRES.DIABP",
      "IT.VS.VSORRES.FRMSIZE",
      "IT.VS.VSORRES.HEIGHT",
      "IT.VS.VSORRES.PULSE",
      "IT.VS.VSORRES.SYSBP",
      "IT.VS.VSORRES.WEIGHT",
      "IT.VS.VSORRESU.HEIGHT.DM.COUNTRY.CMETRIC",
      "IT.VS.VSORRESU.HEIGHT.DM.COUNTRY.CNMETRIC",
      "IT.VS.VSORRESU.WEIGHT.DM.COUNTRY.CMETRIC",
      "IT.VS.VSORRESU.WEIGHT.DM.COUNTRY.CNMETRIC",
      "IT.VS.VSSTRESC.DIABP",
      "IT.VS.VSSTRESC.FRMSIZE",
      "IT.VS.VSSTRESC.HEIGHT",
      "IT.VS.VSSTRESC.PULSE",
      "IT.VS.VSSTRESC.SYSBP",
      "IT.VS.VSSTRESC.WEIGHT",
      "IT.VS.VSSTRESC.BMI",
      "IT.VS.VSSTRESN.DIABP",
      "IT.VS.VSSTRESN.HEIGHT",
      "IT.VS.VSSTRESN.PULSE",
      "IT.VS.VSSTRESN.SYSBP",
      "IT.VS.VSSTRESN.WEIGHT",
      "IT.VS.VSSTRESN.BMI"
    ],
    "valueListDefOrder": [
      "VL.LB.LBORRES",
      "VL.SUPPDM.QVAL",
      "VL.SUPPVS.QVAL",
      "VL.TS.TSVAL",
      "VL.VS.VSORRES",
      "VL.VS.VSSTRESC",
      "VL.VS.VSSTRESN",
      "VL.VS.VSORRESU"
    ],
    "standardSupplemental": {
      "STD.1": {
        "commentOID": "COM.STD1"
      },
      "STD.2": {
        "commentOID": "COM.STD2"
      },
      "STD.2_1": {
        "commentOID": "COM.STD3"
      },
      "STD.3": {
        "commentOID": "COM.CT1"
      },
      "STD.4": {
        "commentOID": "COM.CT2"
      },
      "STD.5": {
        "commentOID": "COM.STD5"
      }
    },
    "hasStandardsElement": true,
    "hasSASFieldName": true,
    "commentSupplemental": {
      "COM.AGEU": {
        "OID": "COM.AGEU",
        "text": "Defaulted to YEARS"
      },
      "COM.ARM": {
        "OID": "COM.ARM",
        "text": "Assigned from TA.ARM based on ARMCD."
      },
      "COM.ARMCD": {
        "OID": "COM.ARMCD",
        "text": "Assigned based on Randomization Number. See Note 2.1",
        "documents": [
          {
            "OID": "LF.csdrg",
            "leafID": "LF.csdrg"
          }
        ]
      },
      "COM.COUNTRY": {
        "OID": "COM.COUNTRY",
        "text": "This is a subset of the ISO-3166_Country_Codes codelist"
      },
      "COM.CT1": {
        "OID": "COM.CT1",
        "text": "Assuming the CT was not upversioned for this study"
      },
      "COM.CT2": {
        "OID": "COM.CT2",
        "text": "The CT version applicable for the new Domain is the 2015-12-18 version"
      },
      "COM.CT2-EC": {
        "OID": "COM.CT2-EC",
        "text": "The Domain codelist was updated when SDTMIG 3.2 became production. Referencing a newer CT version that includes the revised codelist"
      },
      "COM.CT2-SEX": {
        "OID": "COM.CT2-SEX",
        "text": "The term \"UN\" was changed to \"UNDIFERENTIATED\" for codelist \"SEX\" on the 2014-03-28 CT release. Referencing the codelist from a newer release since the new release includes other codelists used in the study."
      },
      "COM.DOMAIN.DI": {
        "OID": "COM.DOMAIN.DI",
        "text": "The DI domain is included to illustrate the use of a separate complementary SDTMIG. In this example, the device ID is referenced from a Findings Domain (XS)."
      },
      "COM.DOMAIN.DM": {
        "OID": "COM.DOMAIN.DM",
        "text": "See Reviewer's Guide, Section 2.1 Demographics",
        "documents": [
          {
            "OID": "LF.csdrg",
            "leafID": "LF.csdrg",
            "pdfPageRefs": [
              {
                "type": "NamedDestination",
                "pageRefs": "section2.1"
              }
            ]
          }
        ]
      },
      "COM.IDVAR": {
        "OID": "COM.IDVAR",
        "text": "Name of the variables for the related records."
      },
      "COM.IDVARVAL": {
        "OID": "COM.IDVARVAL",
        "text": "Value of identifying variable described in IDVAR."
      },
      "COM.ISO3166": {
        "OID": "COM.ISO3166",
        "text": "The code values used are the Alpha-3 codes"
      },
      "COM.LBNRIND": {
        "OID": "COM.LBNRIND",
        "text": "Assuming the LBNRIND is derived by the vendor"
      },
      "COM.LBORRES": {
        "OID": "COM.LBORRES",
        "text": "Origin specified at Value Level Metadata"
      },
      "COM.LBORRESU(Repeated)": {
        "OID": "COM.LBORRESU(Repeated)",
        "text": "Note this example does not include VLM for this variable since it is just an example and the way to specify VLM is illustrated for LBORRESU."
      },
      "COM.LBREFID": {
        "OID": "COM.LBREFID",
        "text": "Accession number"
      },
      "COM.RACE": {
        "OID": "COM.RACE",
        "text": "Note that the study protocol has been amended to not allow the specification of other race per current regulatory requirements. Refer to FDA Guidance XYZ and PMDA Guidance P-XYZ."
      },
      "COM.RESU": {
        "OID": "COM.RESU",
        "text": "Planned Numeric tests were not performed."
      },
      "COM.STD1": {
        "OID": "COM.STD1",
        "text": "The CDISC01 study was modeled on a very old SDTMIG and no attempt was done yet to upversion it to a newer SDTMIG"
      },
      "COM.STD2": {
        "OID": "COM.STD2",
        "text": "As an example, the CDISC01 study was adjusted to include a new Domain available in SDTM IG 3.2"
      },
      "COM.STD3": {
        "OID": "COM.STD3",
        "text": "As an example, the CDISC01 study was adjusted to include a new Domain available in SDTMIG-MD 1.0. The XS Domain is expected to reference the device used with variable SPDEVID."
      },
      "COM.STD5": {
        "OID": "COM.STD5",
        "text": "This is the CDISC CT Package 59 (2025-03-28) associated to the CDISC Define-XML Specification Version 2.1.9."
      },
      "COM.STUDY.DATA": {
        "OID": "COM.STUDY.DATA",
        "text": "The data submitted only includes subjects in the USA since other sites did not enroll any subjects."
      },
      "COM.SUBJECTDATA-JOIN-DM": {
        "OID": "COM.SUBJECTDATA-JOIN-DM",
        "text": "Join any Subject Level dataset with the Demographics dataset based on [IG.datasetname]IT.USUBJID = [IG.DM]IT.USUBJID, assuming 'IG.datasetname' is the OID of the ItemGroupDef that defines the subject-level dataset to be joined with the Demographics dataset."
      },
      "COM.VS.VISITNUM": {
        "OID": "COM.VS.VISITNUM",
        "text": "Assigned from the TV domain based on the VISIT"
      },
      "COM.VSSTRESC": {
        "OID": "COM.VSSTRESC",
        "text": "Testing a comment in addition to a method: BMI is derived and the specific method is provided at VLM"
      },
      "COM.VSSTRESN": {
        "OID": "COM.VSSTRESN",
        "text": "Testing a comment in addition to a method: BMI is operationally derived and the specific method is provided at VLM"
      },
      "COM.VSSTRESU": {
        "OID": "COM.VSSTRESU",
        "text": "Standard units consistent with CDISC controlled terminology"
      },
      "COM.XX": {
        "OID": "COM.XX",
        "text": "Special domain contingent on rare conditions observed."
      }
    },
    "itemGroupSupplemental": {
      "IG.TS": {
        "OID": "IG.TS",
        "defClass": "TRIAL DESIGN",
        "classIsAttribute": false,
        "standardOID": "STD.1",
        "repeating": "No",
        "sasDatasetName": "TS",
        "archiveLocationID": "LF.TS",
        "sourceResourceOID": "RES.LF.TS",
        "leafID": "LF.TS"
      },
      "IG.DI": {
        "OID": "IG.DI",
        "defClass": "SPECIAL PURPOSE",
        "classIsAttribute": false,
        "commentOID": "COM.DOMAIN.DI",
        "standardOID": "STD.2_1",
        "repeating": "No",
        "sasDatasetName": "DI",
        "archiveLocationID": "LF.DI",
        "sourceResourceOID": "RES.LF.DI",
        "leafID": "LF.DI"
      },
      "IG.DM": {
        "OID": "IG.DM",
        "defClass": "SPECIAL PURPOSE",
        "classIsAttribute": false,
        "commentOID": "COM.DOMAIN.DM",
        "standardOID": "STD.1",
        "repeating": "No",
        "sasDatasetName": "DM",
        "archiveLocationID": "LF.DM",
        "sourceResourceOID": "RES.LF.DM",
        "leafID": "LF.DM"
      },
      "IG.EC": {
        "OID": "IG.EC",
        "defClass": "INTERVENTIONS",
        "classIsAttribute": false,
        "standardOID": "STD.2",
        "repeating": "Yes",
        "sasDatasetName": "EC",
        "archiveLocationID": "LF.EC",
        "sourceResourceOID": "RES.LF.EC",
        "leafID": "LF.EC"
      },
      "IG.EX": {
        "OID": "IG.EX",
        "defClass": "INTERVENTIONS",
        "classIsAttribute": false,
        "standardOID": "STD.1",
        "repeating": "Yes",
        "sasDatasetName": "EX",
        "archiveLocationID": "LF.EX",
        "sourceResourceOID": "RES.LF.EX",
        "leafID": "LF.EX"
      },
      "IG.LB": {
        "OID": "IG.LB",
        "defClass": "FINDINGS",
        "classIsAttribute": false,
        "standardOID": "STD.1",
        "repeating": "Yes",
        "sasDatasetName": "LB",
        "archiveLocationID": "LF.LB",
        "sourceResourceOID": "RES.LF.LB",
        "leafID": "LF.LB"
      },
      "IG.VS": {
        "OID": "IG.VS",
        "defClass": "FINDINGS",
        "classIsAttribute": false,
        "standardOID": "STD.1",
        "repeating": "Yes",
        "sasDatasetName": "VS",
        "archiveLocationID": "LF.VS",
        "sourceResourceOID": "RES.LF.VS",
        "leafID": "LF.VS"
      },
      "IG.XS": {
        "OID": "IG.XS",
        "defClass": "FINDINGS",
        "classIsAttribute": false,
        "isNonStandard": "Yes",
        "repeating": "Yes",
        "sasDatasetName": "XS",
        "archiveLocationID": "LF.XS",
        "sourceResourceOID": "RES.LF.XS",
        "leafID": "LF.XS"
      },
      "IG.XX": {
        "OID": "IG.XX",
        "defClass": "FINDINGS",
        "classIsAttribute": false,
        "commentOID": "COM.XX",
        "isNonStandard": "Yes",
        "hasNoData": "Yes",
        "repeating": "Yes",
        "sasDatasetName": "XX"
      },
      "IG.SUPPDM": {
        "OID": "IG.SUPPDM",
        "defClass": "RELATIONSHIP",
        "classIsAttribute": false,
        "standardOID": "STD.1",
        "repeating": "Yes",
        "sasDatasetName": "SUPPDM",
        "archiveLocationID": "LF.SUPPDM",
        "sourceResourceOID": "RES.LF.SUPPDM",
        "leafID": "LF.SUPPDM"
      },
      "IG.SUPPVS": {
        "OID": "IG.SUPPVS",
        "defClass": "RELATIONSHIP",
        "classIsAttribute": false,
        "standardOID": "STD.1",
        "hasNoData": "Yes",
        "repeating": "Yes",
        "sasDatasetName": "SUPPVS"
      },
      "VL.LB.LBORRES": {},
      "VL.SUPPDM.QVAL": {},
      "VL.SUPPVS.QVAL": {},
      "VL.TS.TSVAL": {},
      "VL.VS.VSORRES": {},
      "VL.VS.VSSTRESC": {},
      "VL.VS.VSSTRESN": {},
      "VL.VS.VSORRESU": {},
      "_itemOriginMetadata": {
        "IT.STUDYID": {
          "wasElement": true,
          "SASFieldName": "STUDYID"
        },
        "IT.TS.DOMAIN": {
          "wasElement": true,
          "SASFieldName": "DOMAIN"
        },
        "IT.TS.TSSEQ": {
          "wasElement": true,
          "SASFieldName": "TSSEQ"
        },
        "IT.TS.TSPARMCD": {
          "wasElement": true,
          "SASFieldName": "TSPARMCD"
        },
        "IT.TS.TSPARM": {
          "wasElement": true,
          "SASFieldName": "TSPARM"
        },
        "IT.TS.TSVAL": {
          "wasElement": true,
          "valueListOID": "VL.TS.TSVAL",
          "SASFieldName": "TSVAL"
        },
        "IT.DOMAIN": {
          "wasElement": true,
          "SASFieldName": "DOMAIN"
        },
        "IT.SPDEVID": {
          "wasElement": true,
          "SASFieldName": "SPDEVID"
        },
        "IT.DISEQ": {
          "wasElement": true,
          "SASFieldName": "DISEQ"
        },
        "IT.DIPARMCD": {
          "wasElement": true,
          "SASFieldName": "DIPARMCD"
        },
        "IT.DIPARM": {
          "wasElement": true,
          "SASFieldName": "DIPARM"
        },
        "IT.DIVAL": {
          "wasElement": true,
          "SASFieldName": "DIVAL"
        },
        "IT.DM.DOMAIN": {
          "wasElement": true,
          "SASFieldName": "DOMAIN"
        },
        "IT.USUBJID": {
          "wasElement": true,
          "SASFieldName": "USUBJID"
        },
        "IT.DM.SUBJID": {
          "pdfPageRefs_LF.acrf": [
            {
              "type": "PhysicalRef",
              "pageRefs": "3"
            }
          ],
          "wasElement": true,
          "SASFieldName": "SUBJID"
        },
        "IT.DM.RFSTDTC": {
          "wasElement": true,
          "SASFieldName": "RFSTDTC"
        },
        "IT.DM.RFENDTC": {
          "wasElement": true,
          "SASFieldName": "RFENDTC"
        },
        "IT.DM.SITEID": {
          "pdfPageRefs_LF.acrf": [
            {
              "type": "PhysicalRef",
              "pageRefs": "3"
            }
          ],
          "wasElement": true,
          "SASFieldName": "SITEID"
        },
        "IT.DM.BRTHDTC": {
          "pdfPageRefs_LF.acrf": [
            {
              "type": "PhysicalRef",
              "pageRefs": "6"
            }
          ],
          "wasElement": true,
          "SASFieldName": "BRTHDTC"
        },
        "IT.DM.AGE": {
          "wasElement": true,
          "SASFieldName": "AGE"
        },
        "IT.DM.AGEU": {
          "wasElement": true,
          "commentOID": "COM.AGEU",
          "SASFieldName": "AGEU"
        },
        "IT.DM.SEX": {
          "pdfPageRefs_LF.acrf": [
            {
              "type": "PhysicalRef",
              "pageRefs": "6"
            }
          ],
          "wasElement": true,
          "SASFieldName": "SEX"
        },
        "IT.DM.RACE": {
          "pdfPageRefs_LF.acrf": [
            {
              "type": "PhysicalRef",
              "pageRefs": "6"
            }
          ],
          "wasElement": true,
          "commentOID": "COM.RACE",
          "SASFieldName": "RACE"
        },
        "IT.DM.ETHNIC": {
          "pdfPageRefs_LF.acrf": [
            {
              "type": "PhysicalRef",
              "pageRefs": "6"
            }
          ],
          "wasElement": true,
          "SASFieldName": "ETHNIC"
        },
        "IT.DM.ARMCD": {
          "wasElement": true,
          "commentOID": "COM.ARMCD",
          "SASFieldName": "ARMCD"
        },
        "IT.DM.ARM": {
          "wasElement": true,
          "commentOID": "COM.ARM",
          "SASFieldName": "ARM"
        },
        "IT.DM.COUNTRY": {
          "wasElement": true,
          "SASFieldName": "COUNTRY"
        },
        "IT.EC.DOMAIN": {
          "wasElement": true,
          "SASFieldName": "DOMAIN"
        },
        "IT.EC.EXSEQ": {
          "wasElement": true,
          "SASFieldName": "ECSEQ"
        },
        "IT.EC.EXTRT": {
          "wasElement": true,
          "SASFieldName": "ECTRT"
        },
        "IT.EC.EXDOSE": {
          "wasElement": true,
          "SASFieldName": "ECDOSE"
        },
        "IT.EC.EXDOSU": {
          "wasElement": true,
          "SASFieldName": "ECDOSU"
        },
        "IT.EC.EXDOSFRM": {
          "pdfPageRefs_LF.acrf": [
            {
              "type": "PhysicalRef",
              "pageRefs": "20"
            }
          ],
          "wasElement": true,
          "SASFieldName": "ECDOSFRM"
        },
        "IT.EC.EXSTDTC": {
          "pdfPageRefs_LF.acrf": [
            {
              "type": "PhysicalRef",
              "pageRefs": "20"
            }
          ],
          "wasElement": true,
          "SASFieldName": "ECSTDTC"
        },
        "IT.EC.EXENDTC": {
          "pdfPageRefs_LF.acrf": [
            {
              "type": "PhysicalRef",
              "pageRefs": "20"
            }
          ],
          "wasElement": true,
          "SASFieldName": "ECENDTC"
        },
        "IT.EC.EXSTDY": {
          "wasElement": true,
          "SASFieldName": "ECSTDY"
        },
        "IT.EC.EXENDY": {
          "wasElement": true,
          "SASFieldName": "ECENDY"
        },
        "IT.EX.DOMAIN": {
          "wasElement": true,
          "SASFieldName": "DOMAIN"
        },
        "IT.EX.EXSEQ": {
          "wasElement": true,
          "SASFieldName": "EXSEQ"
        },
        "IT.EX.EXTRT": {
          "wasElement": true,
          "SASFieldName": "EXTRT"
        },
        "IT.EX.EXDOSE": {
          "wasElement": true,
          "SASFieldName": "EXDOSE"
        },
        "IT.EX.EXDOSU": {
          "wasElement": true,
          "SASFieldName": "EXDOSU"
        },
        "IT.EX.EXDOSFRM": {
          "originDescription": "EC.ECDOSFRM",
          "pdfPageRefs_LF.acrf": [
            {
              "type": "PhysicalRef",
              "pageRefs": "20"
            }
          ],
          "wasElement": true,
          "SASFieldName": "EXDOSFRM"
        },
        "IT.EX.EXSTDTC": {
          "originDescription": "EC.ECSTDTC",
          "pdfPageRefs_LF.acrf": [
            {
              "type": "PhysicalRef",
              "pageRefs": "20"
            }
          ],
          "wasElement": true,
          "SASFieldName": "EXSTDTC"
        },
        "IT.EX.EXENDTC": {
          "originDescription": "EC.ECENDTC",
          "pdfPageRefs_LF.acrf": [
            {
              "type": "PhysicalRef",
              "pageRefs": "20"
            }
          ],
          "wasElement": true,
          "SASFieldName": "EXENDTC"
        },
        "IT.EX.EXSTDY": {
          "wasElement": true,
          "SASFieldName": "EXSTDY"
        },
        "IT.EX.EXENDY": {
          "wasElement": true,
          "SASFieldName": "EXENDY"
        },
        "IT.LB.DOMAIN": {
          "wasElement": true,
          "SASFieldName": "DOMAIN"
        },
        "IT.LB.LBSEQ": {
          "wasElement": true,
          "SASFieldName": "LBSEQ"
        },
        "IT.LB.LBREFID": {
          "wasElement": true,
          "commentOID": "COM.LBREFID",
          "SASFieldName": "LBREFID"
        },
        "IT.LB.LBTESTCD": {
          "wasElement": true,
          "SASFieldName": "LBTESTCD"
        },
        "IT.LB.LBTEST": {
          "wasElement": true,
          "SASFieldName": "LBTEST"
        },
        "IT.LB.LBCAT": {
          "wasElement": true,
          "SASFieldName": "LBCAT"
        },
        "IT.LB.LBORRES": {
          "valueListOID": "VL.LB.LBORRES",
          "commentOID": "COM.LBORRES",
          "SASFieldName": "LBORRES"
        },
        "IT.LB.LBORRESU": {
          "wasElement": true,
          "commentOID": "COM.LBORRESU(Repeated)",
          "SASFieldName": "LBORRESU"
        },
        "IT.LB.LBORNRLO": {
          "wasElement": true,
          "SASFieldName": "LBORNRLO"
        },
        "IT.LB.LBORNRHI": {
          "wasElement": true,
          "SASFieldName": "LBORNRHI"
        },
        "IT.LB.LBSTRESC": {
          "wasElement": true,
          "commentOID": "COM.LBORRESU(Repeated)",
          "SASFieldName": "LBSTRESC"
        },
        "IT.LB.LBSTRESN": {
          "wasElement": true,
          "SASFieldName": "LBSTRESN"
        },
        "IT.LB.LBSTRESU": {
          "wasElement": true,
          "commentOID": "COM.LBORRESU(Repeated)",
          "SASFieldName": "LBSTRESU"
        },
        "IT.LB.LBSTNRLO": {
          "wasElement": true,
          "SASFieldName": "LBSTNRLO"
        },
        "IT.LB.LBSTNRHI": {
          "wasElement": true,
          "SASFieldName": "LBSTNRHI"
        },
        "IT.LB.LBSTNRC": {
          "wasElement": true,
          "SASFieldName": "LBSTNRC"
        },
        "IT.LB.LBNRIND": {
          "wasElement": true,
          "commentOID": "COM.LBNRIND",
          "SASFieldName": "LBNRIND"
        },
        "IT.LB.LBNAM": {
          "wasElement": true,
          "SASFieldName": "LBNAM"
        },
        "IT.LB.LBSPEC": {
          "wasElement": true,
          "SASFieldName": "LBSPEC"
        },
        "IT.LB.LBMETHOD": {
          "wasElement": true,
          "SASFieldName": "LBMETHOD"
        },
        "IT.LB.LBBLFL": {
          "wasElement": true,
          "SASFieldName": "LBBLFL"
        },
        "IT.LB.LBFAST": {
          "wasElement": true,
          "SASFieldName": "LBFAST"
        },
        "IT.LB.VISITNUM": {
          "wasElement": true,
          "SASFieldName": "VISITNUM"
        },
        "IT.LB.VISIT": {
          "wasElement": true,
          "SASFieldName": "VISIT"
        },
        "IT.LB.VISITDY": {
          "wasElement": true,
          "SASFieldName": "VISITDY"
        },
        "IT.LB.LBDTC": {
          "wasElement": true,
          "SASFieldName": "LBDTC"
        },
        "IT.LB.LBDY": {
          "wasElement": true,
          "SASFieldName": "LBDY"
        },
        "IT.VS.DOMAIN": {
          "wasElement": true,
          "SASFieldName": "DOMAIN"
        },
        "IT.VS.VSSEQ": {
          "wasElement": true,
          "SASFieldName": "VSSEQ"
        },
        "IT.VS.VSTESTCD": {
          "wasElement": true,
          "SASFieldName": "VSTESTCD"
        },
        "IT.VS.VSTEST": {
          "pdfPageRefs_LF.acrf": [
            {
              "type": "PhysicalRef",
              "pageRefs": "11"
            }
          ],
          "wasElement": true,
          "SASFieldName": "VSTEST"
        },
        "IT.VS.VSPOS": {
          "pdfPageRefs_LF.acrf": [
            {
              "type": "PhysicalRef",
              "pageRefs": "11"
            }
          ],
          "wasElement": true,
          "SASFieldName": "VSPOS"
        },
        "IT.VS.VSORRES": {
          "pdfPageRefs_LF.acrf": [
            {
              "type": "PhysicalRef",
              "pageRefs": "11"
            }
          ],
          "wasElement": true,
          "valueListOID": "VL.VS.VSORRES",
          "SASFieldName": "VSORRES"
        },
        "IT.VS.VSORRESU": {
          "pdfPageRefs_LF.acrf": [
            {
              "type": "PhysicalRef",
              "pageRefs": "11"
            }
          ],
          "wasElement": true,
          "valueListOID": "VL.VS.VSORRESU",
          "SASFieldName": "VSORRESU"
        },
        "IT.VS.VSSTRESC": {
          "originDescription": "EDC System",
          "wasElement": true,
          "valueListOID": "VL.VS.VSSTRESC",
          "commentOID": "COM.VSSTRESC",
          "SASFieldName": "VSSTRESC"
        },
        "IT.VS.VSSTRESN": {
          "wasElement": true,
          "valueListOID": "VL.VS.VSSTRESN",
          "commentOID": "COM.VSSTRESN",
          "SASFieldName": "VSSTRESN"
        },
        "IT.VS.VSSTRESU": {
          "wasElement": true,
          "commentOID": "COM.VSSTRESU",
          "SASFieldName": "VSSTRESU"
        },
        "IT.VS.VSBLFL": {
          "wasElement": true,
          "SASFieldName": "VSBLFL"
        },
        "IT.VS.VISITNUM": {
          "wasElement": true,
          "commentOID": "COM.VS.VISITNUM",
          "SASFieldName": "VISITNUM"
        },
        "IT.VS.VISIT": {
          "wasElement": true,
          "SASFieldName": "VISIT"
        },
        "IT.VS.VISITDY": {
          "wasElement": true,
          "SASFieldName": "VISITDY"
        },
        "IT.VS.VSDTC": {
          "pdfPageRefs_LF.acrf": [
            {
              "type": "PhysicalRef",
              "pageRefs": "11"
            }
          ],
          "wasElement": true,
          "SASFieldName": "VSDTC"
        },
        "IT.VS.VSDY": {
          "wasElement": true,
          "SASFieldName": "VSDY"
        },
        "IT.XS.DOMAIN": {
          "wasElement": true,
          "SASFieldName": "DOMAIN"
        },
        "IT.XS.XSSEQ": {
          "wasElement": true,
          "SASFieldName": "XSSEQ"
        },
        "IT.XS.XSTESTCD": {
          "wasElement": true,
          "SASFieldName": "XSTESTCD"
        },
        "IT.XS.XSTEST": {
          "wasElement": true,
          "SASFieldName": "XSTEST"
        },
        "IT.XS.XSORRES": {
          "wasElement": true,
          "SASFieldName": "XSORRES"
        },
        "IT.XS.XSORRESU": {
          "wasElement": true,
          "commentOID": "COM.RESU",
          "hasNoData": "Yes",
          "SASFieldName": "XSORRESU"
        },
        "IT.XS.XSSTRESC": {
          "originDescription": "EDC System",
          "wasElement": true,
          "SASFieldName": "XSSTRESC"
        },
        "IT.XS.XSSTRESN": {
          "wasElement": true,
          "SASFieldName": "XSSTRESN"
        },
        "IT.XS.XSSTRESU": {
          "wasElement": true,
          "commentOID": "COM.RESU",
          "hasNoData": "Yes",
          "SASFieldName": "XSSTRESU"
        },
        "IT.XS.XSBLFL": {
          "wasElement": true,
          "SASFieldName": "XSBLFL"
        },
        "IT.XS.VISITNUM": {
          "wasElement": true,
          "SASFieldName": "VISITNUM"
        },
        "IT.XS.VISIT": {
          "wasElement": true,
          "SASFieldName": "VISIT"
        },
        "IT.XS.VISITDY": {
          "wasElement": true,
          "SASFieldName": "VISITDY"
        },
        "IT.XS.XSDTC": {
          "wasElement": true,
          "SASFieldName": "XSDTC"
        },
        "IT.XS.XSDY": {
          "wasElement": true,
          "SASFieldName": "XSDY"
        },
        "IT.XX.DOMAIN": {
          "wasElement": true,
          "SASFieldName": "DOMAIN"
        },
        "IT.XX.XXSEQ": {
          "wasElement": true,
          "SASFieldName": "XXSEQ"
        },
        "IT.XX.XXTESTCD": {
          "wasElement": true,
          "SASFieldName": "XXTESTCD"
        },
        "IT.XX.XXTEST": {
          "wasElement": true,
          "SASFieldName": "XXTEST"
        },
        "IT.XX.XXORRES": {
          "wasElement": true,
          "SASFieldName": "XXORRES"
        },
        "IT.XX.XXORRESU": {
          "wasElement": true,
          "commentOID": "COM.RESU",
          "SASFieldName": "XXORRESU"
        },
        "IT.XX.XXSTRESC": {
          "originDescription": "EDC System",
          "wasElement": true,
          "SASFieldName": "XXSTRESC"
        },
        "IT.XX.XXSTRESN": {
          "wasElement": true,
          "SASFieldName": "XXSTRESN"
        },
        "IT.XX.XXSTRESU": {
          "wasElement": true,
          "commentOID": "COM.RESU",
          "SASFieldName": "XXSTRESU"
        },
        "IT.XX.XXBLFL": {
          "wasElement": true,
          "SASFieldName": "XXBLFL"
        },
        "IT.XX.VISITNUM": {
          "wasElement": true,
          "SASFieldName": "VISITNUM"
        },
        "IT.XX.VISIT": {
          "wasElement": true,
          "SASFieldName": "VISIT"
        },
        "IT.XX.VISITDY": {
          "wasElement": true,
          "SASFieldName": "VISITDY"
        },
        "IT.XX.XXDTC": {
          "wasElement": true,
          "SASFieldName": "XXDTC"
        },
        "IT.XX.XXDY": {
          "wasElement": true,
          "SASFieldName": "XXDY"
        },
        "IT.RDOMAIN": {
          "wasElement": true,
          "SASFieldName": "RDOMAIN"
        },
        "IT.SUPPDM.IDVAR": {
          "wasElement": true,
          "commentOID": "COM.IDVAR",
          "SASFieldName": "IDVAR"
        },
        "IT.SUPPDM.IDVARVAL": {
          "wasElement": true,
          "commentOID": "COM.IDVARVAL",
          "SASFieldName": "IDVARVAL"
        },
        "IT.SUPPDM.QNAM": {
          "wasElement": true,
          "SASFieldName": "QNAM"
        },
        "IT.SUPPDM.QLABEL": {
          "wasElement": true,
          "SASFieldName": "QLABEL"
        },
        "IT.SUPPDM.QVAL": {
          "valueListOID": "VL.SUPPDM.QVAL",
          "SASFieldName": "QVAL"
        },
        "IT.SUPPDM.QORIG": {
          "wasElement": true,
          "SASFieldName": "QORIG"
        },
        "IT.SUPPDM.QEVAL": {
          "wasElement": true,
          "SASFieldName": "QEVAL"
        },
        "IT.SUPPVS.IDVAR": {
          "wasElement": true,
          "commentOID": "COM.IDVAR",
          "SASFieldName": "IDVAR"
        },
        "IT.SUPPVS.IDVARVAL": {
          "wasElement": true,
          "commentOID": "COM.IDVARVAL",
          "SASFieldName": "IDVARVAL"
        },
        "IT.SUPPVS.QNAM": {
          "wasElement": true,
          "SASFieldName": "QNAM"
        },
        "IT.SUPPVS.QLABEL": {
          "wasElement": true,
          "SASFieldName": "QLABEL"
        },
        "IT.SUPPVS.QVAL": {
          "valueListOID": "VL.SUPPVS.QVAL",
          "SASFieldName": "QVAL"
        },
        "IT.SUPPVS.QORIG": {
          "wasElement": true,
          "SASFieldName": "QORIG"
        },
        "IT.SUPPVS.QEVAL": {
          "wasElement": true,
          "SASFieldName": "QEVAL"
        },
        "IT.LB.LBORRES.SET1.LBSPEC.BLOOD": {
          "originDescription": "From Central lab (LB.LBNAM NE \"LOCAL LAB\")",
          "wasElement": true,
          "SASFieldName": "SET1"
        },
        "IT.LB.LBORRES.SET2.LBSPEC.BLOOD": {
          "originDescription": "From Central lab (LB.LBNAM NE \"LOCAL LAB\")",
          "wasElement": true,
          "SASFieldName": "SET2"
        },
        "IT.LB.LBORRES.SET3.LBSPEC.URINE": {
          "originDescription": "From Central lab (LB.LBNAM NE \"LOCAL LAB\")",
          "wasElement": true,
          "SASFieldName": "SET3"
        },
        "IT.LB.LBORRES.HCT.LBSPEC.BLOOD.VENDOR": {
          "originDescription": "From Central lab (LB.LBNAM NE \"LOCAL LAB\")",
          "wasElement": true,
          "SASFieldName": "HCT"
        },
        "IT.LB.LBORRES.HCT.LBSPEC.BLOOD.CRF": {
          "originDescription": "From Local lab (LB.LBNAM=\"LOCAL LAB\"). Note that the CRF page reference is given only for illustration purposes. The sample acrf.pdf does not include the local lab CRF page.",
          "pdfPageRefs_LF.acrf": [
            {
              "type": "PhysicalRef",
              "pageRefs": "1"
            }
          ],
          "wasElement": true,
          "SASFieldName": "HCT"
        },
        "IT.LB.LBORRES.PH.LBSPEC.URINE": {
          "originDescription": "From Central lab (LB.LBNAM NE \"LOCAL LAB\")",
          "wasElement": true,
          "SASFieldName": "PH"
        },
        "IT.LB.LBORRES.VITB12.LBSPEC.SERUM": {
          "originDescription": "From Central lab (LB.LBNAM NE \"LOCAL LAB\")",
          "wasElement": true,
          "SASFieldName": "VITB12"
        },
        "IT.LB.LBORRES.VITB9.LBSPEC.BLOOD": {
          "originDescription": "From Central lab (LB.LBNAM NE \"LOCAL LAB\")",
          "wasElement": true,
          "SASFieldName": "VITB9"
        },
        "IT.SUPPDM.QVAL.RACE1": {
          "pdfPageRefs_LF.acrf": [
            {
              "type": "PhysicalRef",
              "pageRefs": "6"
            }
          ],
          "wasElement": true,
          "SASFieldName": "RACE1"
        },
        "IT.SUPPDM.QVAL.RACE2": {
          "pdfPageRefs_LF.acrf": [
            {
              "type": "PhysicalRef",
              "pageRefs": "6"
            }
          ],
          "wasElement": true,
          "SASFieldName": "RACE2"
        },
        "IT.SUPPDM.QVAL.RACE3": {
          "pdfPageRefs_LF.acrf": [
            {
              "type": "PhysicalRef",
              "pageRefs": "6"
            }
          ],
          "wasElement": true,
          "SASFieldName": "RACE3"
        },
        "IT.SUPPDM.QVAL.RAND": {
          "pdfPageRefs_LF.acrf": [
            {
              "type": "PhysicalRef",
              "pageRefs": "16"
            }
          ],
          "wasElement": true,
          "SASFieldName": "RAND"
        },
        "IT.SUPPDM.QVAL.RANDNO": {
          "pdfPageRefs_LF.acrf": [
            {
              "type": "PhysicalRef",
              "pageRefs": "16"
            }
          ],
          "wasElement": true,
          "SASFieldName": "RANDNO"
        },
        "IT.SUPPDM.QVAL.SAFETY": {
          "wasElement": true,
          "SASFieldName": "SAFETY"
        },
        "IT.SUPPVS.QVAL.VSCLSIG": {
          "wasElement": true,
          "SASFieldName": "VSCLSIG"
        },
        "IT.TS.TSVAL.AGEMAX": {
          "wasElement": true,
          "SASFieldName": "AGEMAX"
        },
        "IT.TS.TSVAL.AGEMIN": {
          "wasElement": true,
          "SASFieldName": "AGEMIN"
        },
        "IT.TS.TSVAL.AGEU": {
          "wasElement": true,
          "SASFieldName": "AGEU"
        },
        "IT.TS.TSVAL.DOSE": {
          "wasElement": true,
          "SASFieldName": "DOSE"
        },
        "IT.TS.TSVAL.FCNTRY": {
          "wasElement": true,
          "SASFieldName": "FCNTRY"
        },
        "IT.TS.TSVAL.PLANSUB": {
          "wasElement": true,
          "SASFieldName": "PLANSUB"
        },
        "IT.VS.VSORRES.DIABP": {
          "pdfPageRefs_LF.acrf": [
            {
              "type": "PhysicalRef",
              "pageRefs": "11"
            }
          ],
          "wasElement": true,
          "SASFieldName": "DIABPOR"
        },
        "IT.VS.VSORRES.FRMSIZE": {
          "pdfPageRefs_LF.acrf": [
            {
              "type": "PhysicalRef",
              "pageRefs": "11"
            }
          ],
          "wasElement": true,
          "SASFieldName": "FRMSZOR"
        },
        "IT.VS.VSORRES.HEIGHT": {
          "pdfPageRefs_LF.acrf": [
            {
              "type": "PhysicalRef",
              "pageRefs": "11"
            }
          ],
          "wasElement": true,
          "SASFieldName": "HEIGHTOR"
        },
        "IT.VS.VSORRES.PULSE": {
          "pdfPageRefs_LF.acrf": [
            {
              "type": "PhysicalRef",
              "pageRefs": "11"
            }
          ],
          "wasElement": true,
          "SASFieldName": "PULSEOR"
        },
        "IT.VS.VSORRES.SYSBP": {
          "pdfPageRefs_LF.acrf": [
            {
              "type": "PhysicalRef",
              "pageRefs": "11"
            }
          ],
          "wasElement": true,
          "SASFieldName": "SYSBPOR"
        },
        "IT.VS.VSORRES.WEIGHT": {
          "pdfPageRefs_LF.acrf": [
            {
              "type": "PhysicalRef",
              "pageRefs": "11"
            }
          ],
          "wasElement": true,
          "SASFieldName": "WEIGHTOR"
        },
        "IT.VS.VSSTRESC.DIABP": {
          "SASFieldName": "DIABPSC"
        },
        "IT.VS.VSSTRESC.FRMSIZE": {
          "SASFieldName": "FRMSZSC"
        },
        "IT.VS.VSSTRESC.HEIGHT": {
          "SASFieldName": "HEIGHTSC"
        },
        "IT.VS.VSSTRESC.PULSE": {
          "SASFieldName": "PULSESC"
        },
        "IT.VS.VSSTRESC.SYSBP": {
          "SASFieldName": "SYSBPSC"
        },
        "IT.VS.VSSTRESC.WEIGHT": {
          "SASFieldName": "WEIGHTSC"
        },
        "IT.VS.VSSTRESC.BMI": {
          "SASFieldName": "BMISC"
        },
        "IT.VS.VSSTRESN.DIABP": {
          "SASFieldName": "DIABPSN"
        },
        "IT.VS.VSSTRESN.HEIGHT": {
          "SASFieldName": "HEIGHTSN"
        },
        "IT.VS.VSSTRESN.PULSE": {
          "SASFieldName": "PULSESN"
        },
        "IT.VS.VSSTRESN.SYSBP": {
          "SASFieldName": "SYSBPSN"
        },
        "IT.VS.VSSTRESN.WEIGHT": {
          "SASFieldName": "WEIGHTSN"
        },
        "IT.VS.VSSTRESN.BMI": {
          "originDescription": "EDC System",
          "pdfPageRefs_LF.acrf": [
            {
              "type": "PhysicalRef",
              "pageRefs": "11"
            }
          ],
          "wasElement": true,
          "SASFieldName": "BMISN"
        },
        "IT.VS.VSORRESU.HEIGHT.DM.COUNTRY.CMETRIC": {
          "pdfPageRefs_LF.acrf": [
            {
              "type": "PhysicalRef",
              "pageRefs": "11"
            }
          ],
          "wasElement": true,
          "SASFieldName": "HEIGHTOM",
          "commentOID": "COM.STUDY.DATA"
        },
        "IT.VS.VSORRESU.HEIGHT.DM.COUNTRY.CNMETRIC": {
          "pdfPageRefs_LF.acrf": [
            {
              "type": "PhysicalRef",
              "pageRefs": "11"
            }
          ],
          "wasElement": true,
          "SASFieldName": "HEIGHTON"
        },
        "IT.VS.VSORRESU.WEIGHT.DM.COUNTRY.CMETRIC": {
          "pdfPageRefs_LF.acrf": [
            {
              "type": "PhysicalRef",
              "pageRefs": "11"
            }
          ],
          "wasElement": true,
          "SASFieldName": "WEIGHTOM",
          "commentOID": "COM.STUDY.DATA"
        },
        "IT.VS.VSORRESU.WEIGHT.DM.COUNTRY.CNMETRIC": {
          "pdfPageRefs_LF.acrf": [
            {
              "type": "PhysicalRef",
              "pageRefs": "11"
            }
          ],
          "wasElement": true,
          "SASFieldName": "WEIGHTON"
        }
      }
    },
    "codeListSupplemental": {
      "CL.AGEU": {
        "OID": "CL.AGEU",
        "standardOID": "STD.3",
        "isEnumeratedList": true
      },
      "CL.ARM": {
        "OID": "CL.ARM",
        "standardOID": "STD.3",
        "isEnumeratedList": true
      },
      "CL.ARMCD": {
        "OID": "CL.ARMCD",
        "standardOID": "STD.3",
        "sasFormatName": "$ARMCD"
      },
      "CL.COUNTRY.STUDY": {
        "OID": "CL.COUNTRY.STUDY",
        "standardOID": "STD.3",
        "commentOID": "COM.COUNTRY",
        "sasFormatName": "$COUNTRY"
      },
      "CL.DI.DOMAIN": {
        "OID": "CL.DI.DOMAIN",
        "standardOID": "STD.4",
        "sasFormatName": "$DIDOMAI"
      },
      "CL.DM.DOMAIN": {
        "OID": "CL.DM.DOMAIN",
        "standardOID": "STD.3",
        "sasFormatName": "$DMDOMAI"
      },
      "CL.EC.DOMAIN": {
        "OID": "CL.EC.DOMAIN",
        "standardOID": "STD.4",
        "commentOID": "COM.CT2-EC",
        "sasFormatName": "$ECDOMAI"
      },
      "CL.ETHNIC": {
        "OID": "CL.ETHNIC",
        "standardOID": "STD.3",
        "isEnumeratedList": true
      },
      "CL.EX.DOMAIN": {
        "OID": "CL.EX.DOMAIN",
        "standardOID": "STD.3",
        "sasFormatName": "$EXDOMAI"
      },
      "CL.EXTRT": {
        "OID": "CL.EXTRT",
        "standardOID": "STD.3",
        "isEnumeratedList": true
      },
      "CL.FRM": {
        "OID": "CL.FRM",
        "standardOID": "STD.3",
        "sasFormatName": "$FRM"
      },
      "CL.LB.DOMAIN": {
        "OID": "CL.LB.DOMAIN",
        "standardOID": "STD.3",
        "sasFormatName": "$LBDOMAI"
      },
      "CL.LBRESU": {
        "OID": "CL.LBRESU",
        "standardOID": "STD.3",
        "sasFormatName": "$LBRESU",
        "codeListItemSupplemental": {
          "X10^9/L": {
            "extendedValue": "Yes"
          },
          "pg/mL": {
            "extendedValue": "Yes"
          }
        }
      },
      "CL.LBTEST": {
        "OID": "CL.LBTEST",
        "standardOID": "STD.3",
        "isEnumeratedList": true
      },
      "CL.LBTESTCD": {
        "OID": "CL.LBTESTCD",
        "standardOID": "STD.3",
        "sasFormatName": "$LBTESTC"
      },
      "CL.METHOD": {
        "OID": "CL.METHOD",
        "standardOID": "STD.3",
        "enumeratedItemSupplemental": {
          "DIPSTICK": {
            "extendedValue": "Yes"
          },
          "QUANT": {
            "extendedValue": "Yes"
          }
        },
        "isEnumeratedList": true
      },
      "CL.NRIND": {
        "OID": "CL.NRIND",
        "standardOID": "STD.3",
        "isEnumeratedList": true
      },
      "CL.NY": {
        "OID": "CL.NY",
        "standardOID": "STD.3",
        "sasFormatName": "$NY"
      },
      "CL.RACE": {
        "OID": "CL.RACE",
        "standardOID": "STD.3",
        "isEnumeratedList": true
      },
      "CL.SEX": {
        "OID": "CL.SEX",
        "standardOID": "STD.4",
        "commentOID": "COM.CT2-SEX",
        "sasFormatName": "$SEX"
      },
      "CL.SIZE": {
        "OID": "CL.SIZE",
        "standardOID": "STD.3",
        "isEnumeratedList": true
      },
      "CL.SPECTYPE": {
        "OID": "CL.SPECTYPE",
        "standardOID": "STD.3",
        "isEnumeratedList": true
      },
      "CL.TS.DOMAIN": {
        "OID": "CL.TS.DOMAIN",
        "standardOID": "STD.3",
        "sasFormatName": "$TSDOMAI"
      },
      "CL.TSPARM": {
        "OID": "CL.TSPARM",
        "standardOID": "STD.3",
        "enumeratedItemSupplemental": {
          "Age Unit": {
            "extendedValue": "Yes"
          }
        },
        "isEnumeratedList": true
      },
      "CL.TSPARMCD": {
        "OID": "CL.TSPARMCD",
        "standardOID": "STD.3",
        "sasFormatName": "$TSPARMC",
        "codeListItemSupplemental": {
          "AGEU": {
            "extendedValue": "Yes"
          }
        }
      },
      "CL.UH_MC": {
        "OID": "CL.UH_MC",
        "standardOID": "STD.3",
        "sasFormatName": "$UH_MC"
      },
      "CL.UH_NMC": {
        "OID": "CL.UH_NMC",
        "standardOID": "STD.3",
        "sasFormatName": "$UH_NMC"
      },
      "CL.UW_MC": {
        "OID": "CL.UW_MC",
        "standardOID": "STD.3",
        "sasFormatName": "$UW_MC"
      },
      "CL.UW_NMC": {
        "OID": "CL.UW_NMC",
        "standardOID": "STD.3",
        "sasFormatName": "$UW_NMC"
      },
      "CL.VS.DOMAIN": {
        "OID": "CL.VS.DOMAIN",
        "standardOID": "STD.3",
        "sasFormatName": "$VSDOMAI"
      },
      "CL.VSRESU": {
        "OID": "CL.VSRESU",
        "standardOID": "STD.3",
        "sasFormatName": "$VSRESU"
      },
      "CL.VSTEST": {
        "OID": "CL.VSTEST",
        "standardOID": "STD.3",
        "isEnumeratedList": true
      },
      "CL.VSTESTCD": {
        "OID": "CL.VSTESTCD",
        "standardOID": "STD.3",
        "sasFormatName": "$VSTESTC"
      },
      "CL.XSRESU": {
        "OID": "CL.XSRESU",
        "standardOID": "STD.3",
        "sasFormatName": "$XSRESU"
      },
      "CL.XSTEST": {
        "OID": "CL.XSTEST",
        "standardOID": "STD.3",
        "isEnumeratedList": true
      },
      "CL.XSTESTCD": {
        "OID": "CL.XSTESTCD",
        "standardOID": "STD.3",
        "sasFormatName": "$XSTESTC"
      },
      "CL.XXRESU": {
        "OID": "CL.XXRESU",
        "standardOID": "STD.3",
        "sasFormatName": "$XXRESU"
      },
      "CL.XXTEST": {
        "OID": "CL.XXTEST",
        "standardOID": "STD.3",
        "isEnumeratedList": true
      },
      "CL.XXTESTCD": {
        "OID": "CL.XXTESTCD",
        "standardOID": "STD.3",
        "sasFormatName": "$XXTESTC"
      },
      "CL.ISO.COUNTRY": {
        "OID": "CL.ISO.COUNTRY",
        "standardOID": "STD.3",
        "commentOID": "COM.ISO3166",
        "externalCodeListLinks": {
          "href": "https://www.iso.org/iso-3166-country-codes.html"
        }
      }
    },
    "methodSupplemental": {
      "MT.AGE": {
        "pdfPageRefs_LF.ComplexAlgorithms": [
          {
            "type": "NamedDestination",
            "pageRefs": "DM"
          }
        ],
        "_isFromXML": true
      },
      "MT.BMISC": {
        "_isFromXML": true
      },
      "MT.BMISN": {
        "_isFromXML": true
      },
      "MT.CLSIG": {
        "_isFromXML": true
      },
      "MT.ECENDY": {
        "_isFromXML": true
      },
      "MT.EXDOSE": {
        "_isFromXML": true
      },
      "MT.EXDOSU": {
        "_isFromXML": true
      },
      "MT.EXENDY": {
        "_isFromXML": true
      },
      "MT.EXSTDY": {
        "_isFromXML": true
      },
      "MT.EXTRT": {
        "_isFromXML": true
      },
      "MT.LBBLFL": {
        "_isFromXML": true
      },
      "MT.LBDY": {
        "_isFromXML": true
      },
      "MT.LBNRIND": {
